"Time (s)","Linear Acceleration x (m/s^2)","Linear Acceleration y (m/s^2)","Linear Acceleration z (m/s^2)","Absolute acceleration (m/s^2)"
-2.011291668e-3,-1.677596869e-1,-6.023164219e-1,-1.258433660e0,1.405198797e0
8.040708330e-3,-4.015231095e-1,-5.877898917e-1,-1.243111031e0,1.432495305e0
1.809270834e-2,-5.110214319e-1,-5.552130067e-1,-7.483249050e-1,1.062729763e0
2.814470834e-2,-6.441723264e-1,-6.475729939e-1,-1.127482926e0,1.451043251e0
3.819670834e-2,-7.695420387e-1,-7.036355129e-1,-1.435438233e0,1.774198637e0
4.824970833e-2,-6.309299178e-1,-6.887561032e-1,-1.612876085e0,1.863820484e0
5.830170834e-2,-2.714966016e-1,-8.290688136e-1,-1.982910111e0,2.166332848e0
6.835370834e-2,1.734605759e-2,-9.397843802e-1,-2.479372049e0,2.651562054e0
7.840570834e-2,8.938083082e-2,-9.290474305e-1,-2.968457140e0,3.111728756e0
8.845870834e-2,2.882501900e-2,-8.316945058e-1,-3.314370232e0,3.417249869e0
9.851070834e-2,2.564303733e-1,-5.693208763e-1,-3.736705847e0,3.788515987e0
1.085627083e-1,5.860410625e-1,-3.824163821e-1,-4.132699757e0,4.191526416e0
1.186147083e-1,6.553714985e-1,-3.910568127e-1,-4.029360160e0,4.100997505e0
1.286667083e-1,4.815908606e-1,-3.357120395e-1,-3.236678277e0,3.289486069e0
1.387197083e-1,1.481661057e-1,-2.450509608e-1,-2.312736343e0,2.330397511e0
1.487717083e-1,2.472365038e-1,-6.745333359e-1,-2.127533389e0,2.245555484e0
1.588237083e-1,6.763252151e-1,-1.728612363e-1,-1.956302356e0,2.077117164e0
1.688757083e-1,8.429017179e-1,1.183286414e-1,-1.229353702e0,1.495257669e0
1.789287083e-1,6.153459187e-1,3.839843130e-1,-1.515963748e0,1.680547720e0
1.889807083e-1,1.504992910e-1,5.348053470e-1,-2.102649978e0,2.174811193e0
1.990327083e-1,9.641835686e-2,8.244036126e-1,-2.218103251e0,2.368315825e0
2.090847083e-1,4.950468387e-1,7.741678441e-1,-3.231352633e-1,9.740757782e-1
2.191377083e-1,9.241728991e-2,5.356052461e-1,1.042203040e0,1.175415293e0
2.291897083e-1,-1.127494475e-1,6.958870751e-1,-2.999697644e-1,7.661286567e-1
2.392417083e-1,1.049657802e-1,1.068042763e0,-3.209220922e-1,1.120144700e0
2.492937083e-1,-4.884934256e-1,7.537139913e-1,2.674943286e-1,9.371573099e-1
2.593457083e-1,-1.699424232e0,-1.928008264e-1,1.313601555e0,2.156562989e0
2.693987083e-1,1.471761137e0,1.616620934e0,1.583617787e0,2.699516509e0
2.794507083e-1,2.219484290e-1,9.400279167e-1,1.365182768e0,1.672315036e0
2.895027083e-1,2.024595679e-1,6.174083778e-1,6.204503918e-1,8.984106357e-1
2.995547083e-1,2.680570500e-1,1.019950876e0,5.980081934e-1,1.212339957e0
3.096077083e-1,3.163818754e-2,1.134842817e0,7.753425497e-1,1.374781896e0
3.196597083e-1,5.617038547e-1,1.374820148e0,9.442861515e-1,1.759919884e0
3.297117083e-1,2.446457670e-1,1.507711280e0,1.052460226e0,1.854917083e0
3.397637083e-1,9.251588859e-2,1.827673844e0,8.561902463e-1,2.020399121e0
3.498167083e-1,-4.679987155e-2,2.059093776e0,9.951744694e-1,2.287450465e0
3.598687083e-1,-2.758535447e-1,1.970811929e0,1.536241892e0,2.514007556e0
3.699207083e-1,-5.025605474e-1,1.603898270e0,2.534898963e0,3.041507770e0
3.799727083e-1,-4.335682632e-1,8.829786801e-1,3.754250418e0,3.880982993e0
3.900247083e-1,-1.830659433e-1,6.375482351e-2,4.777520174e0,4.781451331e0
4.000777083e-1,1.286000066e-1,-5.320285043e-1,5.311552811e0,5.339680286e0
4.101297083e-1,4.115035757e-1,-7.970444906e-1,5.109887606e0,5.188021440e0
4.201817083e-1,2.237638798e-1,-8.231221953e-1,4.057349612e0,4.146044657e0
4.302337083e-1,-2.914655008e-1,-5.880769899e-1,2.394173439e0,2.482509444e0
4.402869583e-1,-3.933985860e-1,-3.365993544e-1,9.051215011e-1,1.042739903e0
4.503389583e-1,-1.848800419e-1,-2.915766710e-1,-3.557405072e-1,4.957306663e-1
4.603909583e-1,2.982602578e-1,-3.621759528e-1,-1.541037778e0,1.610878033e0
4.704429583e-1,9.495554430e-1,-4.259731686e-1,-2.177990767e0,2.413866703e0
4.804959583e-1,1.435471416e0,-5.837044421e-1,-2.207383550e0,2.697004116e0
4.905479583e-1,1.791665082e0,-6.571559957e-1,-1.814341316e0,2.633201887e0
5.005999583e-1,1.861152224e0,-6.114462644e-1,-1.267203314e0,2.333143453e0
5.106519583e-1,1.475475873e0,-7.069383126e-1,-9.509046149e-1,1.892355785e0
5.207039583e-1,1.008318572e0,-6.628722337e-1,-8.116695464e-1,1.454274181e0
5.307569583e-1,6.658881544e-1,-5.291969901e-1,-7.556684232e-1,1.137757116e0
5.408089583e-1,2.581166372e-1,-5.817412394e-1,-8.881125355e-1,1.092607406e0
5.508609583e-1,-4.152941063e-2,-6.875583011e-1,-9.076305413e-1,1.139409632e0
5.609129583e-1,-3.609932072e-2,-7.635259116e-1,-9.958901685e-1,1.255417144e0
5.709659583e-1,8.958467938e-2,-9.241249520e-1,-1.028830458e0,1.385829879e0
5.810179583e-1,3.851677529e-1,-1.006569231e0,-6.882447642e-1,1.278755907e0
5.910699583e-1,1.763342632e-1,-9.937910181e-1,-6.859696126e-1,1.220355960e0
6.011219583e-1,1.125874065e-2,-9.807809633e-1,-1.172276106e0,1.528492501e0
6.111739583e-1,-3.223438427e-2,-8.059006834e-1,-1.522860539e0,1.723258306e0
6.212269583e-1,-1.308121179e-1,-5.737516040e-1,-2.015627037e0,2.099775003e0
6.312789583e-1,-4.727459237e-2,-4.126757231e-1,-2.516018888e0,2.550075918e0
6.413309583e-1,-3.227107555e-2,-2.577402958e-1,-2.782721504e0,2.794818501e0
6.513829583e-1,-4.015297607e-2,-1.343245769e-1,-2.864360329e0,2.867789296e0
6.614359583e-1,8.015889466e-2,-1.559101582e-2,-2.697279065e0,2.698514940e0
6.714879583e-1,1.634251824e-1,-3.570280641e-2,-2.382428722e0,2.388294181e0
6.815399583e-1,2.928395234e-1,-3.772886664e-2,-2.024651629e0,2.046067612e0
6.915919583e-1,4.555681197e-1,-7.789748400e-2,-1.770268512e0,1.829606771e0
7.016449583e-1,4.842042006e-1,-9.026960760e-2,-1.588662180e0,1.663264811e0
7.116969583e-1,2.034003666e-1,4.479347259e-2,-1.302553241e0,1.319099355e0
7.217489583e-1,-7.971436009e-3,2.357649976e-1,-9.082538545e-1,9.383889077e-1
7.318009583e-1,-1.359527341e-1,3.899896958e-1,-8.117601782e-1,9.107852083e-1
7.418529583e-1,-1.516228335e-1,3.798801523e-1,-7.061600482e-1,8.160639849e-1
7.519059583e-1,-7.295106847e-2,4.622668362e-1,-2.077942568e-1,5.120458372e-1
7.619579583e-1,-8.475677960e-2,4.887167162e-1,3.940730989e-1,6.334992878e-1
7.720099583e-1,-2.392670778e-1,4.692595214e-1,9.235454929e-1,1.063197776e0
7.820619583e-1,-3.029641235e-1,5.120263490e-1,1.347066339e0,1.472598372e0
7.921149583e-1,-3.189770890e-1,5.536143780e-1,1.602185621e0,1.724886670e0
8.021669583e-1,-3.207523402e-1,5.729286084e-1,1.643317274e0,1.769638641e0
8.122189583e-1,-2.973792285e-1,5.682207227e-1,1.482071532e0,1.614882417e0
8.222709583e-1,-3.245858844e-1,5.440959880e-1,1.441778954e0,1.574840624e0
8.323239583e-1,-4.110976693e-1,4.845733792e-1,1.730182925e0,1.843188978e0
8.423759583e-1,-5.240306827e-1,5.312288976e-1,2.146135721e0,2.272159948e0
8.524279583e-1,-4.501284550e-1,4.304079893e-1,2.374208706e0,2.454533284e0
8.624799583e-1,-1.724315391e-1,3.893242827e-1,2.375933050e0,2.413786215e0
8.725319583e-1,2.352220105e-1,4.761843789e-1,2.153821886e0,2.218339395e0
8.825849583e-1,4.628293383e-1,5.495148951e-1,1.773934717e0,1.913902295e0
8.926369583e-1,4.942613384e-1,7.514642751e-1,1.276794502e0,1.561792889e0
9.026889583e-1,1.500932749e-1,1.071887015e0,5.796409196e-1,1.227783922e0
9.127409583e-1,-4.087871785e-1,1.531916707e0,-1.787727714e-2,1.585621440e0
9.227939583e-1,-8.574548529e-1,1.738872473e0,-2.442463839e-1,1.954114274e0
9.328459583e-1,-1.031190175e0,1.451782078e0,8.025888205e-2,1.782544773e0
9.428979583e-1,-9.984521992e-1,9.970230666e-1,1.515137537e0,2.070411443e0
9.529499583e-1,-9.752647001e-1,4.085531437e-1,3.446731313e0,3.605275808e0
9.630019583e-1,-7.929793601e-1,-2.462005234e-1,4.526526688e0,4.602051153e0
9.730549583e-1,-6.777504008e-1,-8.095078307e-1,4.674296352e0,4.792044963e0
9.831069583e-1,-6.882236411e-1,-9.851122883e-1,3.577299054e0,3.773747014e0
9.931589583e-1,-7.708924531e-1,-8.446174371e-1,1.696507056e0,2.045920326e0
1.003210958e0,-9.328179344e-1,-7.610113165e-1,1.579730558e-1,1.214184092e0
1.013263958e0,-8.960948619e-1,-7.146616074e-1,-1.102343407e0,1.590247843e0
1.023315958e0,-7.915856031e-1,-7.774481320e-1,-1.913006063e0,2.211475879e0
1.033367958e0,-6.828085347e-1,-8.643497434e-1,-2.247962058e0,2.503330059e0
1.043419958e0,-5.811763984e-1,-9.591836876e-1,-2.424390680e0,2.671229964e0
1.053472958e0,-5.737209792e-1,-1.144349805e0,-2.570292744e0,2.871427698e0
1.063524958e0,-5.003693033e-1,-1.339141023e0,-2.668732374e0,3.027507325e0
1.073576958e0,-4.749085164e-1,-1.403435837e0,-2.561755224e0,2.959351293e0
1.083628958e0,-4.841147382e-1,-1.461465652e0,-2.327078978e0,2.790259039e0
1.093681958e0,-4.517998816e-1,-1.596293966e0,-1.931982032e0,2.546533356e0
1.103733958e0,-5.019913575e-1,-1.604712203e0,-1.497411118e0,2.251518739e0
1.113785958e0,-5.675536285e-1,-1.534128708e0,-1.214009439e0,2.037028947e0
1.123837958e0,-5.951792374e-1,-1.423507867e0,-1.128229031e0,1.911416678e0
1.133889958e0,-4.152984186e-1,-1.347972073e0,-1.345384680e0,1.949246373e0
1.143942958e0,-2.074894707e-1,-1.266633795e0,-1.695385560e0,2.126439571e0
1.153994958e0,-2.090014876e-1,-1.125458913e0,-1.694359374e0,2.044796585e0
1.164046958e0,-3.441373656e-1,-1.102031166e0,-1.517686338e0,1.906901947e0
1.174098958e0,-2.697124699e-1,-9.520059380e-1,-1.545536626e0,1.835141298e0
1.184151958e0,-1.580721661e-2,-7.614051265e-1,-1.764335343e0,1.921683334e0
1.194203958e0,2.157455930e-1,-6.830422041e-1,-2.082487024e0,2.202236368e0
1.204255958e0,4.281683595e-1,-5.818622768e-1,-2.271278415e0,2.383400405e0
1.214307958e0,3.785956652e-1,-3.961310264e-1,-2.289377301e0,2.354039697e0
1.224359958e0,2.305781153e-1,-2.352823099e-1,-2.170944287e0,2.195796696e0
1.234412958e0,3.567172846e-1,-3.816857725e-2,-1.937325802e0,1.970262756e0
1.244464958e0,3.573424982e-1,2.011179060e-1,-1.643907259e0,1.694276585e0
1.254516958e0,2.323432070e-1,3.613038406e-1,-1.344297098e0,1.411261322e0
1.264568958e0,1.803224297e-1,5.229197118e-1,-1.003317887e0,1.145691051e0
1.274621958e0,6.118694566e-2,6.796660218e-1,-6.100493646e-1,9.153414503e-1
1.284673958e0,-1.933548501e-1,7.818849993e-1,-3.789048368e-1,8.901118612e-1
1.294725958e0,-4.156947137e-1,9.233159897e-1,-3.792825669e-1,1.081281544e0
1.304777958e0,-5.109912457e-1,1.075447385e0,-4.222824061e-1,1.263337469e0
1.314830958e0,-4.450155035e-1,1.133222845e0,-3.520959377e-1,1.267361182e0
1.324882958e0,-1.741166335e-1,1.092807183e0,-1.059082782e-1,1.111647743e0
1.334934958e0,5.641174391e-2,1.015120784e0,2.093940550e-1,1.038026185e0
1.344986958e0,5.283704862e-2,9.370528534e-1,7.032650918e-1,1.172792221e0
1.355038958e0,-5.837567747e-3,8.100054288e-1,1.396487006e0,1.614409747e0
1.365091958e0,2.932904899e-2,7.043260691e-1,1.847092155e0,1.977039411e0
1.375143958e0,8.244457126e-2,5.940984526e-1,1.926924775e0,2.018115251e0
1.385195958e0,1.085153324e-1,4.900644994e-1,1.818879340e0,1.886865348e0
1.395247958e0,3.361798167e-2,4.655602804e-1,1.604688814e0,1.671197993e0
1.405300958e0,-7.530183189e-2,6.433644605e-1,1.233646728e0,1.393367304e0
1.415352958e0,3.531747490e-2,7.545080432e-1,5.882363266e-1,9.573670598e-1
1.425404958e0,1.041258276e-1,8.025359032e-1,-7.664062500e-2,8.128836628e-1
1.435456958e0,8.309931323e-2,8.610361263e-1,-6.266952181e-1,1.068192681e0
1.445508958e0,2.267661327e-1,1.036654325e0,-6.409630090e-1,1.239721197e0
1.455561958e0,4.492351466e-1,1.085881741e0,-8.181716502e-2,1.177983625e0
1.465613958e0,6.290475529e-1,7.321421510e-1,8.663187933e-1,1.297012415e0
1.475665958e0,8.322658519e-1,1.987600163e-1,2.183162629e0,2.344860562e0
1.485717958e0,7.646998132e-1,-2.402772939e-1,3.458013516e0,3.549698080e0
1.495770958e0,-1.517776385e-2,-3.698267421e-1,4.427730378e0,4.443174370e0
1.505822958e0,-8.077352473e-1,-4.249294406e-1,4.401750614e0,4.495376483e0
1.515874958e0,-8.583462609e-1,-6.798905548e-1,3.098621423e0,3.286405969e0
1.525926958e0,-3.154034901e-1,-8.065225348e-1,1.227432892e0,1.502181568e0
1.535978958e0,2.671838415e-1,-9.363833472e-1,-4.702260661e-1,1.081348016e0
1.546031958e0,5.831366774e-1,-1.074777879e0,-1.726342474e0,2.115526935e0
1.556083958e0,8.908980028e-1,-1.047524591e0,-2.482759926e0,2.838151488e0
1.566135958e0,9.975924392e-1,-8.193735453e-1,-3.131101536e0,3.386792068e0
1.576187958e0,6.099123935e-1,-5.680587548e-1,-3.771021987e0,3.862031939e0
1.586240958e0,1.662494972e-1,-4.672232285e-1,-3.710651824e0,3.743644401e0
1.596292958e0,1.637005498e-1,-3.884828684e-1,-3.165637531e0,3.193583847e0
1.606344958e0,5.810151614e-1,-4.866503102e-1,-2.566207879e0,2.675785870e0
1.616396958e0,1.068811380e0,-7.345281073e-1,-1.863000675e0,2.269947317e0
1.626449958e0,1.380264198e0,-1.034046759e0,-9.283443028e-1,1.958623267e0
1.636501958e0,1.431535070e0,-1.328919798e0,4.848511219e-2,1.953886203e0
1.646553958e0,1.208442159e0,-1.599489177e0,6.360776603e-1,2.103162587e0
1.656605958e0,1.204555514e0,-1.935972464e0,3.261354697e-1,2.303325360e0
1.666657958e0,1.532496897e0,-2.051704065e0,-6.994708335e-1,2.654674322e0
1.676710958e0,1.708763405e0,-1.686395759e0,-2.196272087e0,3.253830682e0
1.686762958e0,1.285976384e0,-1.208175964e0,-3.704996397e0,4.103708411e0
1.696814958e0,2.618967891e-1,-7.650216293e-1,-4.715900461e0,4.784722059e0
1.706866958e0,-6.879219979e-1,-3.530583894e-1,-5.095146191e0,5.153484414e0
1.716919958e0,-9.359760886e-1,-1.081208646e-2,-5.013392175e0,5.100026396e0
1.726971958e0,-5.260052875e-1,-1.346175224e-2,-4.341703802e0,4.373471697e0
1.737023958e0,-8.480976999e-2,-4.030339569e-1,-3.407440363e0,3.432241089e0
1.747075958e0,2.837525117e-1,-7.198320079e-1,-2.303535165e0,2.430009848e0
1.757128958e0,5.946983770e-1,-8.558775665e-1,-1.525041550e0,1.847144905e0
1.767180958e0,8.136575997e-1,-7.761789939e-1,-1.543719311e0,1.909859113e0
1.777232958e0,8.152468729e-1,-6.538721994e-1,-1.872790083e0,2.144648925e0
1.787284958e0,7.331253603e-1,-4.751023516e-1,-1.938911567e0,2.126634220e0
1.797336958e0,5.936891475e-1,-2.858481538e-1,-2.032459416e0,2.136601800e0
1.807389958e0,3.344735992e-1,-1.869786076e-1,-2.071776094e0,2.106914752e0
1.817441958e0,1.107705304e-1,-9.024431840e-2,-1.849722818e0,1.855232775e0
1.827493958e0,1.289696968e-1,-1.213098443e-1,-1.594298896e0,1.604100443e0
1.837545958e0,9.466495961e-2,-2.475339809e-1,-1.555971567e0,1.578379563e0
1.847598958e0,-5.779037118e-2,-3.497107123e-1,-1.996258135e0,2.027482145e0
1.857650958e0,-5.249484032e-2,-6.574561040e-1,-2.466398247e0,2.553061799e0
1.867702958e0,4.956363112e-2,-1.038924360e0,-2.525701877e0,2.731481348e0
1.877754958e0,-7.866785467e-2,-1.183505976e0,-2.120650631e0,2.429821830e0
1.887806958e0,-3.790849310e-1,-1.265335859e0,-1.430609018e0,1.947157514e0
1.897859958e0,-5.610590529e-1,-1.452967601e0,-9.608378649e-1,1.830057789e0
1.907911958e0,-7.707475153e-1,-1.777483099e0,-6.607201660e-1,2.046960927e0
1.917963958e0,-1.020477710e0,-1.936813294e0,-4.096360481e-1,2.227200526e0
1.928015958e0,-1.081322667e0,-1.966949113e0,-6.049359745e-1,2.324670956e0
1.938068958e0,-9.455561668e-1,-2.104030798e0,-1.406325531e0,2.701624245e0
1.948120958e0,-7.641889858e-1,-2.416520036e0,-2.308498866e0,3.428224162e0
1.958172958e0,-1.006198810e0,-2.889606267e0,-2.904424281e0,4.218760580e0
1.968224958e0,-1.514967967e0,-3.657910523e0,-3.423820168e0,5.234308157e0
1.978277958e0,-2.049644383e0,-4.484339027e0,-3.909406870e0,6.292360501e0
1.988329958e0,-2.932626572e0,-5.200856833e0,-4.125536917e0,7.257359386e0
1.998381958e0,-3.936788211e0,-5.837868878e0,-4.109702657e0,8.152832047e0
2.008433958e0,-4.375870253e0,-6.342164331e0,-3.795217765e0,8.589235516e0
2.018485958e0,-4.178668812e0,-6.745797628e0,-3.059936829e0,8.504720575e0
2.028538958e0,-3.634702340e0,-7.064227052e0,-2.006841595e0,8.194008673e0
2.038590958e0,-3.137205445e0,-7.165694954e0,-4.636105263e-1,7.836081731e0
2.048642958e0,-2.883552645e0,-6.768462020e0,1.694913690e0,7.549813666e0
2.058694958e0,-3.195850679e0,-6.023091713e0,3.598064856e0,7.709550315e0
2.068747958e0,-3.729598557e0,-5.544808184e0,4.182500492e0,7.883407484e0
2.078799958e0,-4.228568950e0,-5.125472190e0,4.436584524e0,7.989652231e0
2.088851958e0,-4.961292899e0,-4.414006086e0,5.095278922e0,8.370169906e0
2.098903958e0,-5.830848126e0,-3.581964255e0,6.091160905e0,9.161413590e0
2.108955958e0,-6.484292017e0,-2.929551521e0,7.093897578e0,1.004747222e1
2.119008958e0,-6.803611972e0,-2.246940257e0,8.054902089e0,1.078050667e1
2.129060958e0,-6.731846171e0,-1.427862288e0,8.787336016e0,1.116126417e1
2.139112958e0,-6.115645536e0,-5.262687045e-1,8.870810866e0,1.078746330e1
2.149164958e0,-5.203912588e0,2.340982488e-1,8.313102268e0,9.810360724e0
2.159217958e0,-4.173332643e0,7.672152123e-1,7.465751842e0,8.587361358e0
2.169269958e0,-3.207753271e0,1.191385977e0,6.653654280e0,7.481991504e0
2.179321958e0,-2.659633521e0,1.534931531e0,6.000562391e0,6.740653847e0
2.189373958e0,-2.598421360e0,1.811046994e0,5.607916013e0,6.440528456e0
2.199426958e0,-2.571460433e0,1.981120863e0,5.099239826e0,6.044790769e0
2.209478958e0,-2.194648899e0,2.194198956e0,4.379904247e0,5.367918970e0
2.219530958e0,-1.300894386e0,2.538187145e0,3.817677505e0,4.765436152e0
2.229582958e0,-5.223896617e-1,2.709913729e0,3.196096554e0,4.222742777e0
2.239634958e0,1.160286391e-1,2.756674205e0,2.307899526e0,3.597098211e0
2.249687958e0,8.092499685e-1,2.745369198e0,1.449038710e0,3.208060275e0
2.259739958e0,1.366759762e0,2.594586463e0,7.277245796e-1,3.021505291e0
2.269791958e0,1.793339286e0,2.377409472e0,1.459014791e-1,2.981514520e0
2.279843958e0,2.119173625e0,2.154451631e0,-3.809422991e-1,3.045927727e0
2.289896958e0,2.507383136e0,1.940193569e0,-8.445592573e-1,3.280945232e0
2.299948958e0,2.934339221e0,1.861105592e0,-1.204800659e0,3.677717406e0
2.310000958e0,3.274078238e0,1.825782270e0,-1.464932173e0,4.024809993e0
2.320052958e0,3.576222582e0,1.751395454e0,-1.669777387e0,4.317975280e0
2.330104958e0,3.690456710e0,1.586012807e0,-1.730979316e0,4.373922353e0
2.340157958e0,3.563565114e0,1.419446683e0,-1.598349555e0,4.155544069e0
2.350209958e0,3.485589570e0,1.477329732e0,-1.398158433e0,4.035676497e0
2.360261958e0,3.383321768e0,1.540513283e0,-1.306299259e0,3.940363577e0
2.370313958e0,3.258266197e0,1.561670848e0,-1.233365477e0,3.817892724e0
2.380366958e0,3.074978791e0,1.534847916e0,-1.305588238e0,3.676385907e0
2.390418958e0,2.710505467e0,1.344723360e0,-1.328293269e0,3.304464224e0
2.400470958e0,2.094258054e0,1.140285990e0,-1.072262553e0,2.614558455e0
2.410522958e0,1.290930145e0,8.724133462e-1,-6.889645565e-1,1.703607304e0
2.420575958e0,6.171519774e-1,7.452668113e-1,-7.708004326e-2,9.706907418e-1
2.430627958e0,-7.061506927e-2,1.000063911e0,4.555097938e-1,1.101182767e0
2.440679458e0,-7.771809143e-1,1.287018358e0,7.192639509e-1,1.666663451e0
2.450731458e0,-1.237309424e0,1.493356658e0,9.588392866e-1,2.163428181e0
2.460783458e0,-1.786290468e0,1.728105410e0,1.061659358e0,2.702647320e0
2.470836458e0,-2.677958695e0,1.807735131e0,9.040833279e-1,3.355105921e0
2.480888458e0,-4.084301183e0,1.280094085e0,5.109073381e-1,4.310589673e0
2.490940458e0,-5.354941490e0,1.509613672e0,2.276449692e-1,5.568316984e0
2.500992458e0,-5.888588796e0,1.777971050e0,-3.391268134e-2,6.151244519e0
2.511045458e0,-6.961412535e0,1.107705889e0,-3.601134937e-1,7.058183800e0
2.521097458e0,-7.849964197e0,5.186872047e-1,-7.635183102e-1,7.904045453e0
2.531149458e0,-8.601692181e0,-5.762343317e-1,-8.820763086e-1,8.665980210e0
2.541201458e0,-9.130966939e0,-9.085970861e-1,-5.117098685e-1,9.190318433e0
2.551253458e0,-9.206729313e0,-5.508205783e-1,2.908217955e-1,9.227775748e0
2.561306458e0,-9.472403403e0,-3.130523247e-1,1.366004301e0,9.575510208e0
2.571358458e0,-1.000169044e1,-1.065508872e-1,2.334773183e0,1.027114067e1
2.581410458e0,-1.025324234e1,5.592411536e-1,3.064947892e0,1.071613898e1
2.591462458e0,-1.022844195e1,1.941110120e0,3.257417182e0,1.090869837e1
2.601515458e0,-1.022957515e1,3.421681257e0,3.040702997e0,1.120705068e1
2.611567458e0,-1.022524353e1,4.655578246e0,3.229220154e0,1.169007600e1
2.621619458e0,-1.024089302e1,4.826129247e0,2.050685188e0,1.150533455e1
2.631671458e0,-9.900037766e0,4.849800530e0,2.077132144e0,1.121810104e1
2.641724458e0,-9.165474283e0,4.353327482e0,2.772864268e0,1.051884762e1
2.651776458e0,-8.047062727e0,3.240145676e0,3.394563040e0,9.315407708e0
2.661828458e0,-6.983053665e0,1.719956145e0,3.867226810e0,8.165582088e0
2.671880458e0,-5.865447271e0,1.721122080e-1,4.134718215e0,7.178369524e0
2.681932458e0,-4.424794491e0,-7.286431772e-1,4.042787122e0,6.037702781e0
2.691985458e0,-3.302440742e0,-1.280802768e0,3.748710766e0,5.157460906e0
2.702037458e0,-2.498097757e0,-1.627882379e0,3.470749336e0,4.575652347e0
2.712089458e0,-1.946173809e0,-1.706163733e0,3.151752148e0,4.078250701e0
2.722141458e0,-1.529848546e0,-1.515498310e0,2.899145415e0,3.611400814e0
2.732194458e0,-1.286339496e0,-1.228273137e0,2.616471714e0,3.163739627e0
2.742246458e0,-1.176467975e0,-9.065511453e-1,2.260104532e0,2.704437903e0
2.752298458e0,-1.008794389e0,-4.913368535e-1,1.962220908e0,2.260395743e0
2.762350458e0,-8.301590270e-1,-1.284715140e-1,1.687213492e0,1.884770094e0
2.772402458e0,-6.093664098e-1,1.338117760e-1,1.481033067e0,1.607075592e0
2.782455458e0,-4.496350962e-1,1.807614094e-1,1.216034330e0,1.309040067e0
2.792507458e0,-2.920684218e-1,2.991084695e-2,9.426354825e-1,9.872994859e-1
2.802559458e0,-4.517500341e-2,-1.048721516e-1,9.784572798e-1,9.850977604e-1
2.812611458e0,2.578230339e-1,-2.144211987e-1,1.135211776e0,1.183703909e0
2.822664458e0,6.663141972e-1,-4.536892632e-1,1.173710428e0,1.423869631e0
2.832716458e0,1.119778050e0,-8.806970966e-1,1.101144874e0,1.800569435e0
2.842768458e0,1.642543688e0,-1.367367580e0,9.899548061e-1,2.355345916e0
2.852820458e0,2.190605550e0,-1.843568915e0,9.075317234e-1,3.003516747e0
2.862872458e0,2.682938769e0,-2.223270728e0,8.506201887e-1,3.586732200e0
2.872925458e0,3.051166005e0,-2.536372461e0,7.130077225e-1,4.031275141e0
2.882977458e0,3.326223122e0,-2.813333724e0,4.806024619e-1,4.382874129e0
2.893029458e0,3.496901593e0,-3.114949188e0,2.210990113e-1,4.688295422e0
2.903081458e0,3.800322969e0,-3.434935141e0,-2.254890277e-1,5.127580267e0
2.913134458e0,4.096587937e0,-3.669635945e0,-4.772387049e-1,5.520508806e0
2.923186458e0,4.280802128e0,-3.815179574e0,-4.605191765e-1,5.752646344e0
2.933238458e0,4.406381024e0,-3.940560250e0,-2.838998616e-1,5.918176066e0
2.943290458e0,4.448679782e0,-4.106493706e0,-1.059246504e-1,6.055184753e0
2.953342458e0,4.524783048e0,-4.298702209e0,-4.546681602e-2,6.241359591e0
2.963395458e0,4.611594320e0,-4.460176578e0,-3.846064568e-2,6.415719484e0
2.973447458e0,4.696661367e0,-4.637679626e0,-3.085519055e-2,6.600579699e0
2.983499458e0,4.717290929e0,-4.821990295e0,-2.418821353e-2,6.745740077e0
2.993551458e0,4.649466151e0,-4.974968367e0,-2.917778883e-3,6.809394559e0
3.003604458e0,4.605677522e0,-5.116594362e0,8.328421315e-2,6.884674253e0
3.013656458e0,4.615184510e0,-5.212736621e0,1.559020086e-1,6.963968451e0
3.023708458e0,4.518917706e0,-5.334515412e0,2.692274433e-1,6.996438760e0
3.033760458e0,4.382604491e0,-5.525205978e0,4.418249702e-1,7.066139861e0
3.043813458e0,4.349099945e0,-5.689303408e0,5.659034711e-1,7.183529101e0
3.053865458e0,4.485138341e0,-5.762433364e0,6.212672478e-1,7.328579481e0
3.063917458e0,4.523928185e0,-5.804484785e0,6.461734629e-1,7.387523942e0
3.073969458e0,4.480555878e0,-5.828866505e0,6.793651825e-1,7.383265048e0
3.084021458e0,4.308341344e0,-5.929250919e0,6.309256786e-1,7.356350237e0
3.094074458e0,3.912529868e0,-6.179459124e0,5.030728000e-1,7.331213219e0
3.104126458e0,3.282205283e0,-6.527262036e0,2.699121706e-1,7.311010449e0
3.114178458e0,2.625904443e0,-6.891355290e0,-4.943937778e-2,7.374862448e0
3.124230458e0,2.237441747e0,-7.188270469e0,-4.675059414e-1,7.542939726e0
3.134283458e0,2.031789910e0,-7.488437870e0,-7.850629610e-1,7.798794511e0
3.144335458e0,2.139347103e0,-7.663172554e0,-1.022277483e0,8.021600269e0
3.154387458e0,2.597165378e0,-7.568845271e0,-1.066730356e0,8.072831002e0
3.164439458e0,3.157968907e0,-7.184927616e0,-6.032449597e-1,7.871458375e0
3.174492458e0,3.301946068e0,-6.642738698e0,4.515284246e-1,7.431870771e0
3.184544458e0,2.907538508e0,-6.028519099e0,1.734012267e0,6.914016289e0
3.194596458e0,1.868383622e0,-5.415019292e0,2.792268253e0,6.372601768e0
3.204648458e0,5.017302793e-1,-4.895204452e0,3.427979878e0,5.997149818e0
3.214700458e0,-9.663184601e-1,-4.307570096e0,3.875622827e0,5.874468810e0
3.224753458e0,-2.092040205e0,-3.587811763e0,3.891716704e0,5.691615269e0
3.234805458e0,-2.660044581e0,-3.015432208e0,3.538521490e0,5.356286298e0
3.244857458e0,-2.782664786e0,-2.787900968e0,2.939142124e0,4.914689364e0
3.254909458e0,-2.421648921e0,-2.706209225e0,2.276366662e0,4.286000122e0
3.264962458e0,-1.664504076e0,-2.640671586e0,1.665568854e0,3.538055942e0
3.275014458e0,-9.097618514e-1,-2.622320392e0,1.259995451e0,3.048248579e0
3.285066458e0,-3.024326116e-1,-2.590118021e0,9.915649831e-1,2.789870600e0
3.295118458e0,1.909636313e-1,-2.397454604e0,1.055893711e0,2.626626585e0
3.305170458e0,4.583860391e-1,-2.067486285e0,1.327114470e0,2.499169885e0
3.315223458e0,4.801879674e-1,-1.631517301e0,1.749654154e0,2.440024353e0
3.325275458e0,3.354763967e-1,-1.077838311e0,2.242681437e0,2.510756831e0
3.335327458e0,1.995122606e-1,-4.524128160e-1,2.602218542e0,2.648777800e0
3.345379458e0,5.209459841e-2,2.067014122e-1,2.718058900e0,2.726404868e0
3.355432458e0,-1.623122746e-1,7.987682498e-1,2.624113441e0,2.747789537e0
3.365484458e0,-3.651749897e-1,1.318442464e0,2.323927329e0,2.696716807e0
3.375536458e0,-5.185527188e-1,1.737101936e0,1.919953140e0,2.640575717e0
3.385588458e0,-5.307769078e-1,2.026620387e0,1.501515863e0,2.577491844e0
3.395640458e0,-4.537164527e-1,2.210151038e0,1.089233365e0,2.505405267e0
3.405693458e0,-3.260629642e-1,2.251525936e0,7.887133046e-1,2.407852731e0
3.415745458e0,-1.282136518e-1,2.223531806e0,5.895091923e-1,2.303921335e0
3.425797458e0,-2.449398637e-3,2.196197827e0,4.516137209e-1,2.242152057e0
3.435849250e0,-8.678612888e-2,2.109468416e0,5.101222032e-1,2.172006789e0
3.445902250e0,-4.861351705e-1,2.005400257e0,7.165569093e-1,2.184356060e0
3.455954250e0,-8.735652477e-1,2.001537586e0,7.975589725e-1,2.324945002e0
3.466006250e0,-1.164847804e0,2.080514174e0,6.890586966e-1,2.481977341e0
3.476058250e0,-1.520637428e0,2.024480891e0,4.783865865e-1,2.576764403e0
3.486110250e0,-2.059237325e0,2.251604288e0,3.671665514e-1,3.073270491e0
3.496163250e0,-2.535957309e0,2.644669327e0,9.049129017e-2,3.665179941e0
3.506215250e0,-3.465210269e0,2.709630139e0,-3.349455426e-1,4.411571853e0
3.516267250e0,-4.206238434e0,2.251627092e0,-7.628705118e-1,4.831587497e0
3.526319250e0,-3.980755180e0,1.855953026e0,-1.192009875e0,4.551028563e0
3.536372250e0,-4.022918867e0,1.951342748e0,-1.585780088e0,4.744081915e0
3.546424250e0,-4.835686521e0,2.577712276e0,-1.664908118e0,5.727161928e0
3.556476250e0,-6.075009141e0,3.304310097e0,-1.283563385e0,7.033614735e0
3.566528250e0,-7.242799848e0,3.688579754e0,-6.032456906e-1,8.150317516e0
3.576581250e0,-8.443986928e0,3.899051451e0,7.018179059e-2,9.300991503e0
3.586633250e0,-9.287423227e0,4.195772502e0,4.172064382e-1,1.019974501e1
3.596685250e0,-9.787743158e0,4.443575748e0,4.025410366e-1,1.075673374e1
3.606737250e0,-1.015465594e1,4.540877509e0,8.543717623e-2,1.112402379e1
3.616789250e0,-1.040790587e1,4.544512138e0,-4.057979357e-1,1.136405593e1
3.626842250e0,-1.052279664e1,4.516501637e0,-8.687946506e-1,1.148402544e1
3.636894250e0,-1.061597319e1,4.428285279e0,-1.141640936e0,1.155906317e1
3.646946250e0,-1.066961788e1,4.183325534e0,-1.453195496e0,1.155217449e1
3.656998250e0,-1.074662922e1,3.615240467e0,-1.755015466e0,1.147345121e1
3.667051250e0,-1.064478125e1,2.822611794e0,-1.739241286e0,1.114914640e1
3.677103250e0,-1.026192545e1,2.086865419e0,-1.567369545e0,1.058861504e1
3.687155250e0,-9.792171255e0,1.500475643e0,-1.166690846e0,9.974929201e0
3.697207250e0,-9.307662780e0,1.188611473e0,-5.692289288e-1,9.400500265e0
3.707259250e0,-8.838923076e0,1.360801449e0,8.623824477e-2,8.943476883e0
3.717312250e0,-8.559469437e0,2.030792375e0,5.536200790e-1,8.814484098e0
3.727364250e0,-8.545736082e0,2.919107809e0,7.360048217e-1,9.060491084e0
3.737416250e0,-8.552277362e0,3.471390776e0,7.708075954e-1,9.262081102e0
3.747468250e0,-8.287976782e0,3.495681279e0,6.944572847e-1,9.021785725e0
3.757521250e0,-7.698394427e0,3.097009345e0,6.490789443e-1,8.323343505e0
3.767573250e0,-6.791942684e0,2.420203489e0,5.896601236e-1,7.234332686e0
3.777625250e0,-5.994470177e0,1.470249047e0,6.045611680e-1,6.201677126e0
3.787677250e0,-5.133737229e0,5.421731311e-1,1.090649122e0,5.276241574e0
3.797729250e0,-4.185282013e0,-1.570784318e-1,1.616409557e0,4.489325007e0
3.807782250e0,-3.500330400e0,-8.354092419e-1,2.024651045e0,4.129095950e0
3.817834250e0,-2.875512139e0,-1.343177356e0,2.195397928e0,3.859075994e0
3.827886250e0,-2.327792339e0,-1.654621112e0,2.363583730e0,3.707143947e0
3.837938250e0,-1.967966382e0,-1.976389296e0,2.612503209e0,3.821541488e0
3.847991250e0,-1.761647378e0,-2.139765179e0,2.762480782e0,3.913220742e0
3.858043250e0,-1.511364328e0,-2.046923674e0,2.816910174e0,3.795932242e0
3.868095250e0,-1.186700603e0,-1.771556069e0,2.717322151e0,3.454056876e0
3.878147250e0,-9.977776498e-1,-1.458124845e0,2.516731664e0,3.075000255e0
3.888199250e0,-8.512873560e-1,-1.107066788e0,2.233950959e0,2.634544349e0
3.898252250e0,-6.912648511e-1,-8.537197977e-1,1.895005994e0,2.190372641e0
3.908304250e0,-6.725315416e-1,-7.898161626e-1,1.791537175e0,2.070196535e0
3.918356250e0,-7.501287711e-1,-9.024779749e-1,1.857948681e0,2.197528832e0
3.928408250e0,-5.722898000e-1,-9.017400563e-1,1.984017574e0,2.253214698e0
3.938461250e0,-3.063970238e-1,-8.497983626e-1,2.027703876e0,2.219824183e0
3.948513250e0,-5.141164362e-2,-9.886524850e-1,2.087850090e0,2.310669793e0
3.958565250e0,2.132169646e-1,-1.244859641e0,2.142936709e0,2.487431353e0
3.968617250e0,4.531434256e-1,-1.600781412e0,2.151109947e0,2.719395907e0
3.978670250e0,6.463424474e-1,-2.092028803e0,2.169421088e0,3.082325571e0
3.988722250e0,8.945620143e-1,-2.605154136e0,2.303283734e0,3.590568929e0
3.998774250e0,1.399530482e0,-3.010667020e0,2.406973579e0,4.100771060e0
4.008826250e0,1.849080209e0,-3.421649974e0,2.427076306e0,4.584483129e0
4.018878250e0,2.235276523e0,-3.863827824e0,2.418327702e0,5.076803666e0
4.028931250e0,2.701693128e0,-4.218973377e0,2.428181430e0,5.567310587e0
4.038983250e0,3.173268147e0,-4.431033470e0,2.475277244e0,5.985873853e0
4.049035250e0,3.518838592e0,-4.641849860e0,2.505882740e0,6.341012811e0
4.059087250e0,3.772234699e0,-4.945147567e0,2.516160976e0,6.709344614e0
4.069140250e0,3.988462395e0,-5.214645737e0,2.542407957e0,7.040184703e0
4.079192250e0,4.207642935e0,-5.422822402e0,2.539584922e0,7.318521260e0
4.089244250e0,4.340263633e0,-5.618177876e0,2.547571049e0,7.542673883e0
4.099296250e0,4.439811310e0,-5.796310962e0,2.518981673e0,7.723626992e0
4.109348250e0,4.573810197e0,-5.975852058e0,2.364699379e0,7.888114521e0
4.119401250e0,4.658923438e0,-6.165625196e0,2.128934966e0,8.015788529e0
4.129453250e0,4.843080910e0,-6.335268710e0,1.810329541e0,8.177307342e0
4.139505250e0,5.104729777e0,-6.420847973e0,1.488750222e0,8.336781874e0
4.149557250e0,5.420079473e0,-6.470886106e0,1.172304758e0,8.521967316e0
4.159610250e0,5.661941947e0,-6.554422352e0,9.316719532e-1,8.711260047e0
4.169662250e0,6.057157007e0,-6.583625686e0,5.902378285e-1,8.965581904e0
4.179714250e0,6.491730845e0,-6.548882700e0,2.066780233e-1,9.223510709e0
4.189766250e0,6.581893741e0,-6.526325896e0,-2.355142434e-2,9.269024198e0
4.199818250e0,6.375147890e0,-6.462528096e0,-7.261775890e-2,9.078108467e0
4.209871250e0,5.903006276e0,-6.315264800e0,-8.474137584e-2,8.644954233e0
4.219923250e0,5.183383598e0,-6.263546762e0,-1.342368686e-1,8.131267005e0
4.229975250e0,4.381963052e0,-6.549557469e0,-3.349542403e-1,7.887363157e0
4.240027250e0,3.662073156e0,-7.092121194e0,-7.684633005e-1,8.018696819e0
4.250080250e0,3.273670687e0,-7.584805246e0,-1.068170525e0,8.329896677e0
4.260132250e0,3.183790212e0,-7.763354069e0,-1.290066512e0,8.489432143e0
4.270184250e0,3.115016431e0,-7.906327847e0,-1.451885866e0,8.620981380e0
4.280236250e0,3.369293128e0,-7.857524647e0,-1.353486582e0,8.655908715e0
4.290288250e0,3.625856087e0,-7.505363220e0,-1.177824529e0,8.418110242e0
4.300341250e0,3.528977079e0,-6.988403867e0,-5.852349142e-1,7.850730396e0
4.310393250e0,2.846480713e0,-6.263201777e0,2.190846455e-1,6.883178556e0
4.320445250e0,1.689744751e0,-5.565678651e0,9.996142602e-1,5.901800135e0
4.330497250e0,3.617695713e-1,-5.052241076e0,1.451343244e0,5.269005061e0
4.340550250e0,-8.696844506e-1,-4.631526309e0,1.605729618e0,4.978529361e0
4.350602250e0,-1.820130059e0,-4.215823482e0,1.616956272e0,4.868325035e0
4.360654250e0,-2.437815303e0,-3.910655543e0,1.224748435e0,4.768246948e0
4.370706250e0,-2.609328171e0,-3.825070432e0,7.156489098e-1,4.685286616e0
4.380759250e0,-2.220538031e0,-3.856698606e0,1.872980118e-1,4.454210798e0
4.390811250e0,-1.505107808e0,-3.806197374e0,-1.245088559e-1,4.094873676e0
4.400863250e0,-8.048756665e-1,-3.702362811e0,-2.214843428e-1,3.795309017e0
4.410915250e0,-2.725451535e-1,-3.527828102e0,-3.938977281e-2,3.538559527e0
4.420967250e0,1.133073449e-1,-3.192948121e0,3.407388908e-1,3.213076290e0
4.431020250e0,1.445653903e-1,-2.713132329e0,8.951701248e-1,2.860649531e0
4.441073000e0,-1.596067679e-1,-2.075211918e0,1.454123595e0,2.538986856e0
4.451125000e0,-6.078589976e-1,-1.402610795e0,1.833979189e0,2.387527857e0
4.461177000e0,-1.020980571e0,-6.705499202e-1,2.095811659e0,2.425791630e0
4.471230000e0,-1.241344587e0,2.073586392e-1,2.346811577e0,2.662979265e0
4.481282000e0,-1.253184029e0,1.045032800e0,2.480912790e0,2.969426214e0
4.491334000e0,-1.154468411e0,1.626126753e0,2.386605973e0,3.110140447e0
4.501386000e0,-9.979647607e-1,1.972894123e0,2.053839176e0,3.017697838e0
4.511438000e0,-9.308656222e-1,2.181628320e0,1.640660884e0,2.884056357e0
4.521491000e0,-9.701308447e-1,2.285602339e0,1.245762743e0,2.777959093e0
4.531543000e0,-8.632530981e-1,2.290967744e0,9.594403803e-1,2.629498994e0
4.541595000e0,-6.298924756e-1,2.260607246e0,8.885487378e-1,2.509308373e0
4.551647000e0,-3.619496655e-1,2.186278610e0,1.034056699e0,2.445423272e0
4.561700000e0,-1.808257288e-1,2.085166218e0,1.369187526e0,2.501057893e0
4.571752000e0,-2.538790870e-1,2.004018559e0,1.711630880e0,2.647682996e0
4.581804000e0,-4.806153989e-1,1.986357045e0,1.958027869e0,2.830278892e0
4.591856000e0,-8.177278465e-1,2.025224656e0,2.041096923e0,2.989362874e0
4.601908000e0,-1.285109827e0,2.225153823e0,1.961216356e0,3.232520132e0
4.611961000e0,-1.726949415e0,2.561509057e0,1.780810457e0,3.565805493e0
4.622013000e0,-2.076071459e0,2.735849639e0,1.679893947e0,3.823217182e0
4.632065000e0,-2.632595412e0,2.973356522e0,1.615022013e0,4.287155667e0
4.642117000e0,-3.320439641e0,3.364093784e0,1.465433865e0,4.948731435e0
4.652170000e0,-4.161393798e0,3.612295809e0,1.390716974e0,5.683306525e0
4.662222000e0,-5.134051809e0,3.901355839e0,1.116823525e0,6.544185217e0
4.672274000e0,-5.727861702e0,4.267127244e0,7.030703795e-1,7.177122164e0
4.682326000e0,-6.033006252e0,4.568050105e0,4.509992151e-1,7.580741817e0
4.692378000e0,-6.244580734e0,4.689902571e0,5.104829764e-1,7.826274180e0
4.702431000e0,-6.465121921e0,4.719610519e0,8.988719970e-1,8.054843001e0
4.712483000e0,-6.727023388e0,4.800250055e0,1.286654661e0,8.363654971e0
4.722535000e0,-7.012417213e0,4.828054735e0,1.532589136e0,8.650603282e0
4.732587000e0,-7.392346482e0,4.746814690e0,1.587758785e0,8.927486442e0
4.742640000e0,-7.581563550e0,4.649585434e0,1.406545386e0,9.004283452e0
4.752692000e0,-7.616223505e0,4.584510602e0,1.132074745e0,8.961372170e0
4.762744000e0,-7.504939882e0,4.479319777e0,8.220547861e-1,8.778621894e0
4.772796000e0,-7.439232380e0,4.303578787e0,5.134165245e-1,8.609678584e0
4.782848000e0,-7.623082874e0,3.820033933e0,1.801000162e-1,8.528568917e0
4.792901000e0,-7.897292145e0,2.979542291e0,-1.314284509e-1,8.441692302e0
4.802953000e0,-8.073834788e0,1.996506642e0,-2.793776250e-1,8.321712493e0
4.813005000e0,-7.983713408e0,1.051579050e0,-2.125369700e-1,8.055474551e0
4.823057000e0,-7.653669659e0,4.494351214e-1,4.476971827e-2,7.666984773e0
4.833110000e0,-7.221854537e0,2.736233801e-1,3.841129518e-1,7.237236729e0
4.843162000e0,-6.717460266e0,4.925969285e-1,7.453363931e-1,6.776610547e0
4.853214000e0,-6.310111649e0,1.067270638e0,9.954487038e-1,6.476688487e0
4.863266000e0,-6.267421128e0,1.693149585e0,1.076532628e0,6.580748104e0
4.873318000e0,-6.359856251e0,2.016177844e0,1.060893007e0,6.755607938e0
4.883371000e0,-6.230995898e0,2.117648086e0,1.177114677e0,6.685457520e0
4.893423000e0,-5.733929942e0,1.960835118e0,9.227514410e-1,6.129787693e0
4.903475000e0,-5.075779628e0,1.659437463e0,1.061794648e0,5.444692773e0
4.913527000e0,-4.352617046e0,1.345045542e0,1.517141962e0,4.801681204e0
4.923580000e0,-3.741796433e0,8.620012093e-1,1.895233451e0,4.282055169e0
4.933632000e0,-3.097358424e0,4.271782798e-1,2.387391838e0,3.933923014e0
4.943684000e0,-2.507421727e0,1.266518605e-1,2.852484049e0,3.799982850e0
4.953736000e0,-2.001496655e0,-8.639553487e-2,3.172914975e0,3.752444868e0
4.963788000e0,-1.417037630e0,-2.343540645e-1,3.344409717e0,3.639779366e0
4.973841000e0,-8.831540966e-1,-3.104362804e-1,3.384766615e0,3.511833834e0
4.983893000e0,-4.948516148e-1,-3.821471179e-1,3.272522879e0,3.331714353e0
4.993945000e0,-2.104524010e-1,-3.835060108e-1,3.003577856e0,3.035267206e0
5.003997000e0,1.608218193e-2,-2.866907376e-1,2.619644414e0,2.635334337e0
5.014050000e0,8.235510886e-2,-1.262466484e-1,2.142416891e0,2.147712904e0
5.024102000e0,-7.091210783e-2,9.135982096e-2,1.848066886e0,1.851682035e0
5.034154000e0,-1.570491958e-1,4.482007742e-1,1.663873161e0,1.730324328e0
5.044206000e0,-1.234025627e-1,8.160239679e-1,1.437442659e0,1.657517633e0
5.054259000e0,-1.900520504e-2,1.036915988e0,1.174910862e0,1.567153948e0
5.064311000e0,1.899988407e-1,1.133335697e0,8.934557211e-1,1.455614127e0
5.074363000e0,3.836334801e-1,1.053018050e0,6.624158585e-1,1.301851155e0
5.084415000e0,5.762974817e-1,7.903646314e-1,5.581389534e-1,1.126194534e0
5.094467000e0,7.847571516e-1,3.806633869e-1,6.057551694e-1,1.061926422e0
5.104520000e0,1.017538900e0,-1.207064116e-1,7.941735077e-1,1.296405419e0
5.114572000e0,1.378734859e0,-5.876141828e-1,1.009442260e0,1.806979224e0
5.124624000e0,1.730872897e0,-1.033426369e0,1.143593760e0,2.317692329e0
5.134676000e0,2.026039758e0,-1.456463943e0,1.276116225e0,2.802605384e0
5.144728000e0,2.331780725e0,-1.913411860e0,1.329909439e0,3.296514130e0
5.154781000e0,2.639990385e0,-2.351810362e0,1.345764749e0,3.783073350e0
5.164833000e0,2.967104094e0,-2.700377505e0,1.284137435e0,4.212452294e0
5.174885000e0,3.203649695e0,-2.996285501e0,1.314606106e0,4.579223448e0
5.184937000e0,3.458926851e0,-3.270497696e0,1.178722662e0,4.904051106e0
5.194990000e0,3.611420481e0,-3.580871995e0,1.079955003e0,5.199163870e0
5.205042000e0,3.745484857e0,-3.838661700e0,1.158526379e0,5.486908404e0
5.215094000e0,3.733004560e0,-4.079002436e0,1.276267083e0,5.674719516e0
5.225146000e0,3.708693007e0,-4.364871055e0,1.439536546e0,5.905824973e0
5.235199000e0,3.671080207e0,-4.618376505e0,1.578352954e0,6.107162146e0
5.245251000e0,3.564382555e0,-4.900200313e0,1.716280586e0,6.297809552e0
5.255303000e0,3.488755837e0,-5.217329609e0,1.879343058e0,6.551631542e0
5.265355000e0,3.440894623e0,-5.422445256e0,2.018355932e0,6.731747844e0
5.275407000e0,3.336300799e0,-5.525682526e0,2.127021757e0,6.796196874e0
5.285460000e0,3.215304365e0,-5.575132429e0,2.233373255e0,6.812359346e0
5.295512000e0,3.121748330e0,-5.547200280e0,2.311242964e0,6.771896900e0
5.305564000e0,2.979173917e0,-5.524200257e0,2.238029977e0,6.663410830e0
5.315616000e0,2.923204368e0,-5.438861314e0,1.955435214e0,6.476886833e0
5.325669000e0,2.914050552e0,-5.446201909e0,1.571578370e0,6.373591172e0
5.335721000e0,2.820947092e0,-5.613836904e0,1.139030592e0,6.385162329e0
5.345773000e0,2.612076362e0,-5.940462370e0,5.290233278e-1,6.510906371e0
5.355825000e0,2.438060301e0,-6.429565587e0,-2.108248687e-1,6.879527512e0
5.365877000e0,2.329886811e0,-6.872476970e0,-1.055959784e0,7.333100526e0
5.375930000e0,2.477307397e0,-7.097422864e0,-1.720514554e0,7.711720534e0
5.385982000e0,2.566841133e0,-7.062358866e0,-1.912826554e0,7.753998425e0
5.396034000e0,2.621902024e0,-6.849984486e0,-2.194307422e0,7.655824106e0
5.406086000e0,2.650051689e0,-6.609993120e0,-2.238701822e0,7.465023031e0
5.416139000e0,2.790211203e0,-6.062129479e0,-1.955946845e0,6.954165690e0
5.426191000e0,2.534691387e0,-5.395080872e0,-1.611580342e0,6.174848114e0
5.436243000e0,1.770191914e0,-4.925163538e0,-1.273161626e0,5.386256197e0
5.446294833e0,8.815238929e-1,-4.405667371e0,-9.769054288e-1,4.597970593e0
5.456346833e0,-1.978797179e-1,-3.870204213e0,-5.526437402e-1,3.914467031e0
5.466399833e0,-1.148717675e0,-3.402847375e0,-7.912860612e-2,3.592378584e0
5.476451833e0,-1.808568944e0,-3.084270017e0,3.467913437e-1,3.592200913e0
5.486503833e0,-1.904394284e0,-2.842635584e0,6.439778334e-1,3.481666569e0
5.496555833e0,-1.508585147e0,-2.753351524e0,7.532587856e-1,3.228648720e0
5.506608833e0,-8.733676118e-1,-2.826860965e0,6.491666526e-1,3.029080924e0
5.516660833e0,-1.461271816e-1,-2.872964507e0,4.521336114e-1,2.911992962e0
5.526712833e0,5.470485395e-1,-2.766980507e0,2.319771713e-1,2.830063010e0
5.536764833e0,1.111944535e0,-2.490870306e0,1.391029215e-1,2.731337613e0
5.546816833e0,1.495037148e0,-2.008135876e0,2.984003899e-1,2.521267254e0
5.556869833e0,1.745023159e0,-1.401458309e0,5.408241785e-1,2.302538166e0
5.566921833e0,1.751263307e0,-7.944568053e-1,7.894770241e-1,2.078787810e0
5.576973833e0,1.589394836e0,-2.097024956e-1,9.903353137e-1,1.884387199e0
5.587025833e0,1.485930694e0,3.499438700e-1,1.058097526e0,1.857423246e0
5.597078833e0,1.399127609e0,8.164715722e-1,9.714452988e-1,1.888885878e0
5.607130833e0,1.269742759e0,1.177027554e0,7.541422268e-1,1.888483793e0
5.617182833e0,1.198790306e0,1.532942308e0,7.286273897e-1,2.077957697e0
5.627234833e0,1.233695260e0,1.779748603e0,5.553737686e-1,2.235609337e0
5.637286833e0,1.378303919e0,1.843250535e0,3.902197838e-1,2.334430489e0
5.647339833e0,1.477825869e0,1.733269086e0,2.345423814e-1,2.289803736e0
5.657391833e0,1.530681190e0,1.562772171e0,1.943819866e-1,2.196138912e0
5.667443833e0,1.630066899e0,1.417749821e0,2.698116533e-1,2.177138254e0
5.677495833e0,1.739697515e0,1.186417013e0,3.871423942e-1,2.141030594e0
5.687548833e0,1.819239528e0,8.999122167e-1,5.849443442e-1,2.112258115e0
5.697600833e0,1.842029636e0,6.588063723e-1,9.259995693e-1,2.164387724e0
5.707652833e0,1.812932721e0,4.951012909e-1,1.254745821e0,2.259698523e0
5.717704833e0,1.723673805e0,3.790001464e-1,1.582744213e0,2.370605775e0
5.727756833e0,1.419026268e0,3.250894028e-1,1.897540762e0,2.391647887e0
5.737809833e0,9.414128298e-1,4.650115192e-1,2.144150591e0,2.387441221e0
5.747861833e0,2.317134619e-1,7.451451892e-1,2.241266411e0,2.373227255e0
5.757913833e0,-4.992802960e-1,1.053191128e0,2.136462672e0,2.433714263e0
5.767965833e0,-1.058821412e0,1.302125224e0,1.714101328e0,2.398911471e0
5.778018833e0,-1.751749796e0,1.371406544e0,1.154370178e0,2.506382605e0
5.788070833e0,-2.433926319e0,1.392157727e0,7.060700011e-1,2.891476321e0
5.798122833e0,-2.860242135e0,1.704140012e0,3.901273612e-1,3.352204887e0
5.808174833e0,-3.124653811e0,2.195686780e0,2.610957205e-1,3.827880987e0
5.818226833e0,-3.553984451e0,2.382619926e0,2.218679202e-1,4.284496302e0
5.828279833e0,-4.059091498e0,2.368576083e0,2.649367199e-1,4.707076366e0
5.838331833e0,-4.619154770e0,2.397574764e0,5.579564838e-1,5.234144723e0
5.848383833e0,-5.483728169e0,2.462392904e0,8.195925236e-1,6.066826630e0
5.858435833e0,-6.410600143e0,2.522353177e0,8.996257031e-1,6.947473364e0
5.868488833e0,-7.169534236e0,2.672152995e0,8.968611395e-1,7.703699286e0
5.878540833e0,-7.764543393e0,2.979113690e0,8.103936839e-1,8.355835709e0
5.888592833e0,-8.265945643e0,3.191148933e0,6.286306465e-1,8.882818549e0
5.898644833e0,-8.790453751e0,3.124920444e0,3.838990168e-1,9.337268519e0
5.908696833e0,-9.401118243e0,2.744446215e0,2.461560845e-1,9.796611764e0
5.918749833e0,-9.870392382e0,2.176659940e0,3.244432855e-1,1.011275223e1
5.928801833e0,-1.003252749e1,1.688965318e0,5.720541573e-1,1.018977220e1
5.938853833e0,-9.978650072e0,1.398114871e0,8.835306573e-1,1.011478170e1
5.948905833e0,-9.749915181e0,1.310535859e0,1.132389325e0,9.902558047e0
5.958958833e0,-9.334610842e0,1.534029890e0,1.288780124e0,9.547207000e0
5.969010833e0,-8.938510514e0,2.142256093e0,1.315725263e0,9.285330600e0
5.979062833e0,-8.695979118e0,2.963170087e0,1.260718752e0,9.273070773e0
5.989114833e0,-8.382209925e0,3.551240353e0,1.006834475e0,9.158955559e0
5.999166833e0,-7.936943284e0,3.713146831e0,7.689065925e-1,8.796234730e0
6.009219833e0,-7.231046945e0,3.535399076e0,7.347868466e-1,8.082511878e0
6.019271833e0,-6.310287650e0,3.143778300e0,8.051311898e-1,7.095865589e0
6.029323833e0,-5.427977307e0,2.573133906e0,1.017303257e0,6.092525064e0
6.039375833e0,-4.623179993e0,1.900880107e0,1.397978046e0,5.190518379e0
6.049428833e0,-3.776088014e0,1.303428569e0,1.937966073e0,4.439986399e0
6.059480833e0,-2.714671023e0,8.636694199e-1,2.400554506e0,3.725322210e0
6.069532833e0,-2.048379630e0,4.292715830e-1,2.527468321e0,3.281498030e0
6.079584833e0,-1.476298576e0,2.601712757e-1,2.579654136e0,2.983582082e0
6.089636833e0,-9.895868701e-1,2.899224937e-1,2.455958043e0,2.663656723e0
6.099689833e0,-6.798195112e-1,2.516150451e-1,2.364558461e0,2.473176382e0
6.109741833e0,-6.592250329e-1,1.382176530e-1,2.015294915e0,2.124875375e0
6.119793833e0,-5.779738784e-1,2.822544551e-1,1.508738344e0,1.640125840e0
6.129845833e0,-5.230182374e-1,6.630385870e-1,1.086727175e0,1.376279113e0
6.139898833e0,-5.553024691e-1,9.525085062e-1,7.939853004e-1,1.358692733e0
6.149950833e0,-5.641878980e-1,1.282586753e0,5.564673076e-1,1.507644729e0
6.160002833e0,-5.206436831e-1,1.598975499e0,3.053919605e-1,1.709109927e0
6.170054833e0,-5.223124784e-1,1.762705724e0,8.419179238e-2,1.840388560e0
6.180106833e0,-5.514801443e-1,1.762398745e0,4.601758718e-2,1.847240456e0
6.190159833e0,-4.835214651e-1,1.685464590e0,6.223721523e-2,1.754553322e0
6.200211833e0,-2.703664809e-1,1.529304755e0,1.021701533e-1,1.556377142e0
6.210263833e0,-1.695107818e-2,1.204323526e0,2.688947368e-1,1.234093543e0
6.220315833e0,2.373881847e-1,7.767596224e-1,4.826198244e-1,9.447912765e-1
6.230368833e0,5.120055914e-1,2.617947552e-1,7.301570213e-1,9.294167500e-1
6.240420833e0,7.976672190e-1,-2.760800877e-1,9.699641991e-1,1.285816377e0
6.250472833e0,1.096788552e0,-7.874647048e-1,1.080454355e0,1.729285229e0
6.260524833e0,1.348525804e0,-1.293998179e0,1.110290358e0,2.173867018e0
6.270576833e0,1.589120602e0,-1.767578793e0,1.118479968e0,2.626906264e0
6.280629833e0,1.909776061e0,-2.150889215e0,1.144635733e0,3.095764846e0
6.290681833e0,2.289005418e0,-2.464713372e0,1.187941382e0,3.567290644e0
6.300733833e0,2.648080008e0,-2.785964077e0,1.184735938e0,4.022129139e0
6.310785833e0,2.953832669e0,-3.099487688e0,1.160989226e0,4.436197397e0
6.320838833e0,3.176245549e0,-3.376560340e0,1.161285095e0,4.778941158e0
6.330890833e0,3.317062874e0,-3.561108406e0,1.263943491e0,5.028116182e0
6.340942833e0,3.324463695e0,-3.699828335e0,1.385093122e0,5.163261714e0
6.350994833e0,3.226920444e0,-3.846594033e0,1.511256155e0,5.243395500e0
6.361046833e0,3.060079501e0,-3.996274860e0,1.661200984e0,5.300366781e0
6.371099833e0,2.869868991e0,-4.140891413e0,1.823934842e0,5.358159015e0
6.381151833e0,2.754995177e0,-4.325387732e0,1.972838867e0,5.494640175e0
6.391203833e0,2.589783268e0,-4.552844128e0,1.993378966e0,5.604366756e0
6.401255833e0,2.438718697e0,-4.683897773e0,2.140809492e0,5.698185019e0
6.411307833e0,2.404906003e0,-4.780542307e0,2.218307319e0,5.792930605e0
6.421360833e0,2.433537480e0,-4.950579046e0,2.247440486e0,5.956620375e0
6.431412833e0,2.421639565e0,-5.122429883e0,2.273570523e0,6.105141196e0
6.441464833e0,2.295220424e0,-5.283448169e0,2.316388514e0,6.208745211e0
6.451516833e0,2.260616602e0,-5.421091041e0,2.221905695e0,6.279767544e0
6.461569833e0,2.316055807e0,-5.527162457e0,1.821130518e0,6.263398094e0
6.471621833e0,2.197681850e0,-5.878169058e0,1.250536995e0,6.398946770e0
6.481673833e0,2.039686575e0,-6.441261773e0,6.972920879e-1,6.792377404e0
6.491725833e0,2.174781815e0,-6.936311023e0,2.189888243e-1,7.272554067e0
6.501777833e0,2.444337287e0,-7.227576038e0,1.054159427e-1,7.630449048e0
6.511830833e0,2.837380106e0,-7.282373804e0,-6.705937743e-2,7.815893490e0
6.521882833e0,2.999173148e0,-7.301096588e0,-1.524673907e-1,7.894573913e0
6.531934833e0,3.215787930e0,-6.928834773e0,1.930283197e-1,7.641158502e0
6.541986833e0,3.350315990e0,-6.184914576e0,6.623655725e-1,7.065161972e0
6.552039833e0,2.999527490e0,-5.421542446e0,1.150901610e0,6.301972879e0
6.562091833e0,2.021178968e0,-4.744514980e0,1.426786108e0,5.350822873e0
6.572143833e0,8.566784889e-1,-4.094900139e0,1.486144702e0,4.439676931e0
6.582195833e0,-1.288609385e-2,-3.380827053e0,1.508640110e0,3.702182140e0
6.592247833e0,-5.637253833e-1,-2.828385627e0,1.340959507e0,3.180522593e0
6.602300833e0,-8.397654176e-1,-2.491341299e0,9.467449057e-1,2.794335940e0
6.612352833e0,-7.985191584e-1,-2.323587460e0,4.953071129e-1,2.506395951e0
6.622404833e0,-4.015008169e-1,-2.360036225e0,6.944270253e-2,2.394952229e0
6.632456833e0,2.551806772e-1,-2.578308692e0,-2.275619388e-1,2.600880106e0
6.642509833e0,8.878850788e-1,-2.818733920e0,-2.149038863e-1,2.963070115e0
6.652561833e0,1.451512229e0,-2.968251318e0,-2.067107677e-2,3.304214117e0
6.662613833e0,1.953588663e0,-2.979421254e0,1.527661103e-1,3.566061856e0
6.672665833e0,2.371326029e0,-2.746637751e0,3.539518440e-1,3.645886446e0
6.682717833e0,2.573326864e0,-2.277639601e0,5.008034956e-1,3.472816932e0
6.692770833e0,2.405075573e0,-1.678110546e0,5.305436039e-1,2.980255028e0
6.702822833e0,2.188819225e0,-1.028938339e0,4.979161406e-1,2.469324643e0
6.712874833e0,2.027673470e0,-3.875964305e-1,3.991987681e-1,2.102629390e0
6.722926833e0,1.994945435e0,1.717742389e-1,3.217658454e-1,2.028015517e0
6.732979833e0,1.920355428e0,6.015366957e-1,2.155003389e-1,2.023870491e0
6.743031833e0,1.715758429e0,9.283299771e-1,7.469116330e-2,1.952230085e0
6.753083833e0,1.482960894e0,1.237720191e0,-8.744339246e-2,1.933590088e0
6.763135833e0,1.400358447e0,1.447447245e0,-2.467437297e-1,2.029036662e0
6.773187833e0,1.498350765e0,1.554753007e0,-4.194125561e-1,2.199595149e0
6.783240833e0,1.764126012e0,1.519626152e0,-5.068156393e-1,2.382911312e0
6.793292833e0,2.011720512e0,1.296852205e0,-5.260061280e-1,2.450617781e0
6.803344833e0,2.265352262e0,9.652466655e-1,-3.680904114e-1,2.489781626e0
6.813396833e0,2.379723215e0,6.432381606e-1,-4.188535988e-2,2.465480135e0
6.823449833e0,2.308598269e0,4.439641741e-1,3.629156256e-1,2.378747129e0
6.833501833e0,2.180357720e0,3.123351637e-1,8.019409490e-1,2.344061076e0
6.843553833e0,1.969443973e0,3.101047432e-1,1.170040131e0,2.311680866e0
6.853605833e0,1.701882986e0,4.398702461e-1,1.513013828e0,2.319289196e0
6.863657833e0,1.384554593e0,5.353476763e-1,1.726678104e0,2.277060788e0
6.873710833e0,9.471986496e-1,6.906047004e-1,1.705985393e0,2.069904900e0
6.883762833e0,2.945593357e-2,8.210794705e-1,1.468296661e0,1.682538034e0
6.893814833e0,-6.848954791e-1,1.129331816e0,1.130203051e0,1.738341481e0
6.903866833e0,-1.394324706e0,1.427267919e0,8.867027718e-1,2.183455267e0
6.913918833e0,-2.202266067e0,1.547410074e0,6.989410758e-1,2.780822252e0
6.923971833e0,-2.785303634e0,1.645226975e0,7.394745594e-1,3.318359649e0
6.934023833e0,-3.328935646e0,1.731227823e0,9.628773737e-1,3.873770146e0
6.944075833e0,-3.859138942e0,1.892216873e0,1.187927349e0,4.459216237e0
6.954127833e0,-4.661630698e0,2.047725327e0,1.262701542e0,5.245797839e0
6.964180833e0,-5.753691192e0,2.218314335e0,1.273503104e0,6.296641246e0
6.974232833e0,-6.804453971e0,2.517939114e0,1.318737749e0,7.374257961e0
6.984284833e0,-7.658513492e0,2.912234407e0,1.227629943e0,8.284987232e0
6.994336833e0,-8.316218834e0,3.323463237e0,1.028906472e0,9.014629893e0
7.004389833e0,-8.841643785e0,3.648046271e0,8.489338517e-1,9.602270310e0
7.014441833e0,-9.420507025e0,3.945319884e0,7.042912781e-1,1.023755478e1
7.024493833e0,-1.020104775e1,4.097152194e0,4.620879114e-1,1.100279767e1
7.034545833e0,-1.103056417e1,3.832652224e0,1.958209316e-1,1.167908022e1
7.044597833e0,-1.155809762e1,3.180863680e0,1.987743237e-1,1.198945477e1
7.054650833e0,-1.158301261e1,2.262821002e0,4.648717707e-1,1.181112382e1
7.064702833e0,-1.110403326e1,1.302837415e0,8.115607882e-1,1.120961957e1
7.074754833e0,-1.037988250e1,6.960034347e-1,1.111790169e0,1.046243083e1
7.084806833e0,-9.511909531e0,6.897100765e-1,1.398010790e0,9.638804754e0
7.094858833e0,-8.625949940e0,1.401723772e0,1.483440950e0,8.864109597e0
7.104911833e0,-8.008463502e0,2.401086602e0,1.204781363e0,8.447023302e0
7.114963833e0,-7.589578913e0,3.122292706e0,6.944901752e-1,8.236063163e0
7.125015833e0,-6.963297093e0,3.425565562e0,3.086265671e-1,7.766418491e0
7.135067833e0,-6.126202683e0,3.314477820e0,-1.529117060e-1,6.967029821e0
7.145120833e0,-5.273209695e0,2.851572468e0,-2.505695629e-1,6.000082594e0
7.155172833e0,-4.497304058e0,2.236897371e0,1.837171038e-1,5.026251647e0
7.165224833e0,-3.748135400e0,1.521094095e0,7.866632708e-1,4.120811246e0
7.175276833e0,-3.104152304e0,6.585549420e-1,1.300269318e0,3.429308449e0
7.185328833e0,-2.368742729e0,-3.653281868e-2,1.759089221e0,2.950706974e0
7.195381833e0,-1.591016269e0,-4.481925881e-1,2.102324288e0,2.674318002e0
7.205433833e0,-9.086257374e-1,-8.081834364e-1,2.381117776e0,2.673664725e0
7.215485833e0,-3.185650796e-1,-1.006384166e0,2.421119748e0,2.641233355e0
7.225537833e0,-1.862922907e-2,-1.018953341e0,2.262017595e0,2.480995074e0
7.235590833e0,-2.360520959e-3,-9.540270281e-1,1.946297770e0,2.167544268e0
7.245642833e0,8.849176168e-3,-7.422011161e-1,1.508941827e0,1.681620124e0
7.255694833e0,9.729299068e-2,-2.955258805e-1,1.048512186e0,1.093699811e0
7.265746833e0,3.990490794e-2,1.798188382e-1,6.495022827e-1,6.751151247e-1
7.275798833e0,-1.250965011e-1,6.785693765e-1,3.044072163e-1,7.541679432e-1
7.285851833e0,-3.060292339e-1,1.146384051e0,-2.196681976e-2,1.186731994e0
7.295903833e0,-3.751795757e-1,1.480770527e0,-2.549082335e-1,1.548683077e0
7.305955833e0,-4.023410618e-1,1.695563900e0,-3.380316299e-1,1.775128348e0
7.316007833e0,-3.216448081e-1,1.718475630e0,-2.476517658e-1,1.765770447e0
7.326059833e0,-1.465417492e-1,1.552105096e0,-5.321669737e-2,1.559915616e0
7.336112833e0,6.250907421e-2,1.248137882e0,1.437613982e-1,1.257943917e0
7.346164833e0,1.726279324e-1,8.218890175e-1,3.575356025e-1,9.127615610e-1
7.356216833e0,2.900575644e-1,4.630766755e-1,5.345278966e-1,7.643909146e-1
7.366268833e0,7.393160999e-1,1.139911768e-1,6.461068046e-1,9.884514590e-1
7.376321833e0,1.341844776e0,-3.989672184e-1,7.043146670e-1,1.567093294e0
7.386373833e0,1.948174142e0,-1.058320013e0,7.215171754e-1,2.331525417e0
7.396425833e0,2.479471452e0,-1.783065144e0,9.047010863e-1,3.185213343e0
7.406477833e0,3.154203885e0,-2.302698136e0,1.236358666e0,4.096340270e0
7.416529833e0,3.833824006e0,-2.587058758e0,1.500300812e0,4.862302135e0
7.426582833e0,4.246429855e0,-2.835085367e0,1.762771797e0,5.401596057e0
7.436634833e0,4.540196893e0,-3.036291566e0,1.975677105e0,5.808248817e0
7.446686833e0,4.669776455e0,-3.169123933e0,2.115177637e0,6.026950728e0
7.456738833e0,4.444582638e0,-3.331774469e0,2.411598727e0,6.055645660e0
7.466791833e0,4.013696054e0,-3.511671952e0,2.632029401e0,5.947198894e0
7.476843833e0,3.848316915e0,-3.653811041e0,2.411603404e0,5.828868602e0
7.486895833e0,3.869865659e0,-3.843179551e0,2.107580935e0,5.847032297e0
7.496947833e0,3.903076090e0,-4.022864781e0,1.889445877e0,5.915018996e0
7.506999833e0,3.963545070e0,-4.242257282e0,1.660636142e0,6.038555189e0
7.517052833e0,4.075745537e0,-4.489079949e0,1.347196147e0,6.211157536e0
7.527104833e0,4.136907998e0,-4.692565685e0,1.091157099e0,6.350181439e0
7.537156833e0,4.091696742e0,-4.724116091e0,9.930197704e-1,6.328139010e0
7.547208833e0,3.886882226e0,-4.762970547e0,9.429991794e-1,6.219565043e0
7.557261833e0,3.252017278e0,-4.941370851e0,8.808491242e-1,5.980690382e0
7.567313833e0,2.450907218e0,-4.983909929e0,8.077098119e-1,5.612370223e0
7.577365833e0,2.001743993e0,-4.732151043e0,8.745621979e-1,5.212014154e0
7.587417833e0,1.783359259e0,-4.461934251e0,8.928826940e-1,4.887378337e0
7.597469833e0,1.538191354e0,-4.614220889e0,6.450122058e-1,4.906435346e0
7.607522833e0,1.270261992e0,-5.188832034e0,1.699610174e-1,5.344757258e0
7.617574833e0,1.181260938e0,-5.782267705e0,-2.992382777e-1,5.909275824e0
7.627626833e0,1.275967121e0,-6.182653458e0,-5.620168269e-1,6.337914387e0
7.637678833e0,1.454115994e0,-6.402568992e0,-5.845415075e-1,6.591587957e0
7.647730833e0,1.618656642e0,-6.551833205e0,-4.230589163e-1,6.762066735e0
7.657783833e0,1.558200526e0,-6.557162358e0,-8.159204721e-3,6.739765102e0
7.667835833e0,1.460705221e0,-6.051923164e0,6.790488482e-1,6.262630523e0
7.677887833e0,1.279152684e0,-5.239929682e0,1.347213689e0,5.559503520e0
7.687939833e0,7.619787383e-1,-4.449805956e0,1.720419245e0,4.831275921e0
7.697992833e0,9.464478672e-2,-3.801431893e0,1.863636267e0,4.234735200e0
7.708044833e0,-5.551597971e-1,-3.265102470e0,1.899108986e0,3.817815013e0
7.718096833e0,-1.096029584e0,-2.745224479e0,1.854552033e0,3.489541737e0
7.728148833e0,-1.475968208e0,-2.353547277e0,1.763926038e0,3.290760095e0
7.738200833e0,-1.650336857e0,-2.174273107e0,1.660989314e0,3.195302926e0
7.748253833e0,-1.637423866e0,-2.157570243e0,1.578585674e0,3.134995853e0
7.758305833e0,-1.234955335e0,-2.257773685e0,1.493012842e0,2.975188068e0
7.768357833e0,-4.438685721e-1,-2.461809060e0,1.333800176e0,2.834880256e0
7.778409833e0,3.289280999e-1,-2.588252175e0,1.154040980e0,2.852902662e0
7.788462833e0,1.007892748e0,-2.588038751e0,1.012868729e0,2.956297588e0
7.798514833e0,1.602171587e0,-2.422892331e0,9.094794309e-1,3.043766397e0
7.808566833e0,2.017970601e0,-1.999630224e0,8.769753438e-1,2.973182156e0
7.818618833e0,2.064952394e0,-1.396899819e0,7.594515717e-1,2.606170406e0
7.828670833e0,1.802343999e0,-6.658891046e-1,6.621468866e-1,2.032311661e0
7.838723833e0,1.538768474e0,3.278709233e-2,6.324102867e-1,1.663979020e0
7.848775833e0,1.234486388e0,6.381048900e-1,5.728838772e-1,1.503106925e0
7.858827833e0,9.639450753e-1,1.211631961e0,3.999998732e-1,1.599137898e0
7.868879833e0,7.387354714e-1,1.747405607e0,1.229294864e-1,1.901122855e0
7.878932833e0,6.008411694e-1,2.119541122e0,-2.158464940e-1,2.213606647e0
7.888984833e0,7.505708206e-1,2.371166400e0,-5.662572277e-1,2.550771236e0
7.899036833e0,1.115580334e0,2.428100739e0,-9.475693631e-1,2.835150856e0
7.909088833e0,1.583154103e0,2.219196388e0,-1.177583624e0,2.969497047e0
7.919140833e0,1.958605574e0,1.924627112e0,-1.152462816e0,2.978001991e0
7.929193833e0,2.275837489e0,1.570539905e0,-8.993110498e-1,2.907712543e0
7.939245833e0,2.432867389e0,1.230847666e0,-4.537924665e-1,2.764011091e0
7.949297833e0,2.480496469e0,9.872564623e-1,-9.502931423e-3,2.669761854e0
7.959349833e0,2.477310905e0,8.172495443e-1,4.570897114e-1,2.648376322e0
7.969402833e0,2.500430211e0,6.794593227e-1,8.455746263e-1,2.725584829e0
7.979454833e0,2.398290464e0,5.281602788e-1,1.041173784e0,2.667356983e0
7.989506833e0,2.251921792e0,5.343483871e-1,1.119958071e0,2.571183781e0
7.999558833e0,1.860199859e0,6.901708370e-1,1.128276978e0,2.282474148e0
8.009610833e0,1.244750006e0,9.553508377e-1,9.745764097e-1,1.847132095e0
8.019663833e0,7.762810278e-1,1.190629932e0,6.339609683e-1,1.556315642e0
8.029715833e0,2.330600756e-1,1.272112636e0,3.714051980e-1,1.345559132e0
8.039767833e0,-5.534635198e-1,1.369506783e0,1.820706010e-1,1.488294461e0
8.049819833e0,-1.248921409e0,1.609594043e0,6.461173296e-2,2.038325868e0
8.059871833e0,-1.899931104e0,1.863142177e0,-1.957647800e-3,2.661022511e0
8.069924833e0,-2.650111915e0,1.912949930e0,-1.521001855e-1,3.271942094e0
8.079976833e0,-3.280558707e0,1.992996558e0,-2.841840363e-1,3.849007830e0
8.090028833e0,-4.083855041e0,2.185908481e0,-3.215321030e-1,4.643215564e0
8.100080833e0,-4.865873941e0,2.329414941e0,-2.627516520e-1,5.401105591e0
8.110133833e0,-5.429727963e0,2.322653221e0,-2.433997071e-1,5.910660467e0
8.120185833e0,-5.946725907e0,2.273581633e0,-2.163808199e-1,6.370207463e0
8.130237833e0,-6.594393334e0,2.291267121e0,-1.498080770e-1,6.982719450e0
8.140289833e0,-7.450055577e0,2.361712621e0,-1.270086137e-1,7.816466324e0
8.150341833e0,-8.412824192e0,2.302003779e0,-2.045765340e-1,8.724487598e0
8.160394833e0,-9.554009483e0,2.029197839e0,-2.323495658e-1,9.769888812e0
8.170446833e0,-1.058604480e1,1.661108598e0,-2.363444567e-1,1.071818478e1
8.180498833e0,-1.112694616e1,1.373467103e0,-2.001829727e-1,1.121318046e1
8.190550833e0,-1.130131949e1,1.218561496e0,2.994663191e-1,1.137076930e1
8.200602833e0,-1.129141080e1,1.129977933e0,1.022757540e0,1.139380713e1
8.210655833e0,-1.111223574e1,1.375257520e0,1.548156763e0,1.130353510e1
8.220707833e0,-1.069767282e1,2.046865786e0,1.703336020e0,1.102411978e1
8.230759833e0,-1.045176700e1,2.772438006e0,2.106495692e0,1.101649536e1
8.240811833e0,-1.004834654e1,3.392667373e0,2.076478425e0,1.080699879e1
8.250864833e0,-9.281204714e0,3.518346841e0,1.872975440e0,1.010086939e1
8.260916833e0,-8.158094335e0,3.133217643e0,1.551160478e0,8.875677710e0
8.270968833e0,-6.946103940e0,2.466242126e0,1.134144659e0,7.457680221e0
8.281020833e0,-5.748011792e0,1.983017700e0,1.141927303e0,6.186759792e0
8.291072833e0,-4.756661401e0,1.463458675e0,1.479408710e0,5.191935007e0
8.301125833e0,-3.767234745e0,9.731924468e-1,1.903379792e0,4.331514261e0
8.311177833e0,-2.932077518e0,5.698567736e-1,2.193574766e0,3.705885261e0
8.321229833e0,-2.284831676e0,2.476792842e-1,2.415126936e0,3.333862465e0
8.331281833e0,-1.677750358e0,1.098311752e-1,2.509402179e0,3.020597366e0
8.341334833e0,-1.151819623e0,1.757673025e-2,2.556559389e0,2.804102939e0
8.351386833e0,-7.295050567e-1,-9.234332263e-2,2.388826160e0,2.499439005e0
8.361438833e0,-3.364751011e-1,-7.171317637e-2,2.068885231e0,2.097294536e0
8.371490833e0,7.896080017e-2,1.414043856e-1,1.686144036e0,1.693904283e0
8.381542833e0,4.852645200e-1,4.102371418e-1,1.306091976e0,1.452464256e0
8.391595833e0,7.951043844e-1,6.402104723e-1,9.610156202e-1,1.402002658e0
8.401647833e0,9.997750586e-1,7.994927198e-1,7.528120583e-1,1.485080729e0
8.411699833e0,1.123382274e0,9.053957355e-1,6.927389342e-1,1.600505046e0
8.421751833e0,1.270525702e0,1.044862939e0,6.737838690e-1,1.777627301e0
8.431803833e0,1.454678496e0,1.177744423e0,6.250544894e-1,1.973287756e0
8.441856875e0,1.584403653e0,1.201896347e0,6.094927096e-1,2.079993060e0
8.451908875e0,1.716944829e0,1.173714522e0,5.634177832e-1,2.154749388e0
8.461960875e0,1.868677737e0,1.082608762e0,6.117058808e-1,2.244589561e0
8.472012875e0,1.948471180e0,7.438810211e-1,7.839560831e-1,2.228112666e0
8.482065875e0,1.990450680e0,2.318818617e-1,1.128357085e0,2.299750599e0
8.492117875e0,2.253159063e0,-2.198295808e-1,1.604905745e0,2.775026713e0
8.502169875e0,2.548238801e0,-6.369839787e-1,2.126858620e0,3.379762886e0
8.512221875e0,2.896782555e0,-1.094833828e0,2.310503291e0,3.863733394e0
8.522273875e0,3.224938238e0,-1.340269536e0,2.624782362e0,4.368756289e0
8.532326875e0,3.653377762e0,-1.564374601e0,2.785114185e0,4.852967956e0
8.542378875e0,3.960482883e0,-1.852857510e0,2.973300973e0,5.287629365e0
8.552430875e0,4.186554952e0,-2.053392741e0,3.118724735e0,5.609822464e0
8.562482875e0,4.374248820e0,-2.206552076e0,3.137095517e0,5.817584816e0
8.572535875e0,4.492371347e0,-2.331937722e0,2.918121969e0,5.842496871e0
8.582587875e0,4.538178434e0,-2.347524645e0,2.514645377e0,5.694679696e0
8.592639875e0,4.477766172e0,-2.313868072e0,2.056970944e0,5.443850182e0
8.602691875e0,4.303957686e0,-2.319270314e0,1.640846826e0,5.157077163e0
8.612743875e0,4.099326189e0,-2.412216192e0,1.365491500e0,4.948517879e0
8.622796875e0,3.815942051e0,-2.494881204e0,1.361895463e0,4.758214498e0
8.632848875e0,3.660241224e0,-2.579904982e0,1.152754592e0,4.624080306e0
8.642900875e0,3.340558741e0,-2.802091283e0,9.662067783e-1,4.465938177e0
8.652952875e0,3.124425185e0,-2.904917786e0,1.010708182e0,4.384302808e0
8.663004875e0,2.884670632e0,-3.027119038e0,1.069532341e0,4.316094735e0
8.673057875e0,2.642783015e0,-3.257181539e0,1.152419547e0,4.349897063e0
8.683109875e0,2.370375271e0,-3.513674916e0,1.191708743e0,4.402812745e0
8.693161875e0,2.121880301e0,-3.785876253e0,1.222406040e0,4.508825961e0
8.703213875e0,1.839839269e0,-4.046298959e0,1.353459100e0,4.646438995e0
8.713266875e0,1.318035498e0,-4.260944983e0,1.410951263e0,4.677996707e0
8.723318875e0,4.747564888e-1,-4.581757148e0,1.188738942e0,4.757204280e0
8.733370875e0,-1.383971626e-1,-5.053400579e0,6.289493197e-1,5.094270157e0
8.743422875e0,-5.204390305e-1,-5.552037097e0,-9.570781052e-2,5.577197566e0
8.753474875e0,-3.843713987e-1,-5.798629968e0,-7.386302215e-1,5.858107671e0
8.763527875e0,2.381009603e-1,-6.027475371e0,-1.196506968e0,6.149697581e0
8.773579875e0,8.583291578e-1,-6.415830477e0,-1.411388635e0,6.625075663e0
8.783631875e0,1.317057844e0,-6.731316998e0,-1.320994189e0,6.985005049e0
8.793683875e0,1.479654293e0,-6.615645039e0,-9.956831771e-1,6.851826114e0
8.803735875e0,1.227676721e0,-5.986240221e0,-5.569588940e-2,6.111085350e0
8.813788875e0,5.112524700e-1,-4.960898797e0,5.632307088e-1,5.018876846e0
8.823840875e0,-2.218462855e-1,-3.912241893e0,9.603151238e-1,4.034483553e0
8.833892875e0,-9.358193833e-1,-3.199013438e0,1.011389968e0,3.483152962e0
8.843944875e0,-1.433080051e0,-2.671996582e0,8.639179265e-1,3.152719199e0
8.853997875e0,-1.468134109e0,-2.263014837e0,7.203559184e-1,2.792054184e0
8.864049875e0,-1.242673075e0,-2.087026510e0,5.141906959e-1,2.482802468e0
8.874101875e0,-7.399230409e-1,-2.247077666e0,2.361643807e-1,2.377523451e0
8.884153875e0,6.521575034e-2,-2.635017328e0,-8.206742585e-2,2.637101529e0
8.894205875e0,8.398151189e-1,-3.028984593e0,-2.152003402e-1,3.150610779e0
8.904258875e0,1.591800966e0,-3.213075114e0,-1.133722673e-1,3.587552825e0
8.914310875e0,2.286820899e0,-3.102208105e0,6.373348117e-2,3.854517727e0
8.924362875e0,2.759731421e0,-2.768101711e0,1.103626506e-1,3.910330487e0
8.934414875e0,3.037185313e0,-2.243756448e0,1.623333246e-1,3.779588566e0
8.944467875e0,3.012449251e0,-1.678535054e0,1.682559693e-1,3.452628056e0
8.954519875e0,2.770172210e0,-1.023371497e0,1.229669452e-3,2.953158446e0
8.964571875e0,2.531592947e0,-3.435820994e-1,-1.354512988e-1,2.558389838e0
8.974623875e0,2.318916265e0,2.836136404e-1,-1.942853614e-1,2.344260255e0
8.984675875e0,2.310039607e0,9.226818591e-1,-2.618692341e-1,2.501239752e0
8.994728875e0,2.450456983e0,1.408065955e0,-3.289537545e-1,2.845276741e0
9.004780875e0,2.586421119e0,1.639764506e0,-4.155627859e-1,3.090484472e0
9.014832875e0,2.704955290e0,1.679470609e0,-4.369197410e-1,3.213767805e0
9.024884875e0,2.864112992e0,1.607580847e0,-3.563246441e-1,3.303698936e0
9.034936875e0,3.016425943e0,1.469919556e0,-1.968383288e-1,3.361284620e0
9.044989875e0,3.153746633e0,1.305071344e0,3.207709417e-3,3.413112850e0
9.055041875e0,3.256534837e0,1.195873715e0,2.797028033e-1,3.480426230e0
9.065093875e0,3.389568933e0,8.992237070e-1,4.564763385e-1,3.536403749e0
9.075145875e0,3.574956075e0,8.186908829e-1,6.094552875e-1,3.717795240e0
9.085198875e0,3.410279186e0,6.771245295e-1,9.647953335e-1,3.608231117e0
9.095250875e0,3.195682864e0,7.021734166e-1,1.162066868e0,3.472151477e0
9.105302875e0,2.756996094e0,7.677171957e-1,1.413691853e0,3.192012188e0
9.115354875e0,1.971546632e0,8.025531524e-1,1.678816890e0,2.710998679e0
9.125406875e0,1.272023174e0,9.009191072e-1,1.748621535e0,2.342514774e0
9.135459875e0,6.535760379e-1,1.077515545e0,1.678222813e0,2.098721801e0
9.145511875e0,-2.077398777e-1,1.218938642e0,1.483468432e0,1.931229105e0
9.155563875e0,-8.700539947e-1,1.441657916e0,1.264579668e0,2.105833146e0
9.165615875e0,-1.136716264e0,1.685242395e0,1.049284603e0,2.287610976e0
9.175667875e0,-1.484011638e0,1.813364246e0,8.257789508e-1,2.484449900e0
9.185720875e0,-1.932282579e0,1.849671362e0,7.230988473e-1,2.770897338e0
9.195772875e0,-2.467405137e0,1.909570824e0,8.055030727e-1,3.222325875e0
9.205824875e0,-3.241681155e0,2.057018892e0,9.938600153e-1,3.965801453e0
9.215876875e0,-4.168609262e0,2.278339512e0,1.266865345e0,4.916612850e0
9.225929875e0,-5.069311438e0,2.442743336e0,1.415582843e0,5.802481214e0
9.235981875e0,-5.763218061e0,2.418523584e0,1.381575437e0,6.400991285e0
9.246033875e0,-6.379971843e0,2.348095626e0,1.328722454e0,6.926983264e0
9.256085875e0,-6.769595795e0,2.417366420e0,1.239765254e0,7.294388633e0
9.266137875e0,-7.068598430e0,2.631941693e0,1.245935236e0,7.644903888e0
9.276190875e0,-7.649766642e0,2.700290966e0,1.325138111e0,8.219883941e0
9.286242875e0,-8.577601653e0,2.462647843e0,1.378478751e0,9.029955049e0
9.296294875e0,-9.279660464e0,2.045232659e0,1.521329153e0,9.623383882e0
9.306346875e0,-9.536809899e0,1.645484837e0,1.703326664e0,9.826478775e0
9.316398875e0,-9.622211407e0,1.359568856e0,1.867677863e0,9.895635423e0
9.326451875e0,-9.587022278e0,1.175476288e0,2.080000788e0,9.880240075e0
9.336503875e0,-9.449827303e0,1.153760898e0,2.444501009e0,9.828834389e0
9.346555875e0,-9.141116536e0,1.519399572e0,2.740294107e0,9.663218842e0
9.356607875e0,-8.722410872e0,2.196563863e0,2.802865162e0,9.421326729e0
9.366660875e0,-8.338602560e0,2.825768706e0,2.493741581e0,9.150738140e0
9.376712875e0,-7.827345997e0,3.132770916e0,1.947450841e0,8.652985829e0
9.386764875e0,-7.024056680e0,3.036019378e0,1.414070753e0,7.781669615e0
9.396816875e0,-6.043990831e0,2.588379936e0,1.052413448e0,6.658611712e0
9.406868875e0,-5.132524517e0,2.038014856e0,1.007403336e0,5.613481446e0
9.416921875e0,-4.379131245e0,1.574739375e0,1.379526572e0,4.853832313e0
9.426973875e0,-3.584659529e0,9.739882529e-1,1.535106947e0,4.019327108e0
9.437025875e0,-2.737263495e0,3.736844426e-1,1.848759781e0,3.324178731e0
9.447077833e0,-2.051755813e0,-3.660006166e-2,2.435596284e0,3.184834492e0
9.457130833e0,-1.361889031e0,-2.696098512e-1,2.582930916e0,2.932398902e0
9.467182833e0,-8.982878602e-1,-3.528882354e-1,2.596224561e0,2.769807422e0
9.477234833e0,-6.142377251e-1,-3.587173247e-1,2.463215607e0,2.563863731e0
9.487286833e0,-3.267301315e-1,-2.217240787e-1,2.182049904e0,2.217488654e0
9.497338833e0,-1.500939327e-1,-1.078168094e-2,1.721692184e0,1.728255886e0
9.507391833e0,-8.029864311e-2,2.008693993e-1,1.174292153e0,1.194051276e0
9.517443833e0,-1.521679401e-2,4.684414959e-1,8.979007014e-1,1.012864579e0
9.527495833e0,6.601623416e-2,7.687468904e-1,7.204388758e-1,1.055633506e0
9.537547833e0,8.078337729e-2,1.018207237e0,5.804483470e-1,1.174815821e0
9.547599833e0,2.136993599e-1,1.137420269e0,4.378687441e-1,1.237384872e0
9.557652833e0,3.821167123e-1,1.299338441e0,3.659573472e-1,1.402932054e0
9.567704833e0,5.833158946e-1,1.394107774e0,3.574116415e-1,1.552912425e0
9.577756833e0,7.901114470e-1,1.340037986e0,3.795755124e-1,1.601266834e0
9.587808833e0,9.989734054e-1,1.222117773e0,4.264544675e-1,1.635048356e0
9.597861833e0,1.195819336e0,1.000051047e0,5.431648189e-1,1.650791931e0
9.607913833e0,1.324990177e0,6.037750098e-1,7.170989462e-1,1.623075516e0
9.617965833e0,1.448047754e0,1.110941738e-1,9.751302141e-1,1.749303618e0
9.628017833e0,1.726547711e0,-3.324329209e-1,1.206168323e0,2.132210278e0
9.638069833e0,2.127667875e0,-7.153451470e-1,1.382678806e0,2.636378187e0
9.648122833e0,2.493985410e0,-1.122021919e0,1.639141778e0,3.188366695e0
9.658174833e0,2.764566484e0,-1.512976113e0,1.861168742e0,3.660037384e0
9.668226833e0,2.996996230e0,-1.829806032e0,1.656351303e0,3.882483246e0
9.678278833e0,3.221912888e0,-2.100542057e0,1.283179661e0,4.054571449e0
9.688330833e0,3.340219603e0,-2.344548412e0,1.066719246e0,4.218040327e0
9.698383833e0,3.623019018e0,-2.497506311e0,1.001159095e0,4.512884234e0
9.708435833e0,4.027589039e0,-2.595314442e0,1.035870506e0,4.902056530e0
9.718487833e0,4.346204989e0,-2.821192382e0,1.078118904e0,5.292538581e0
9.728539833e0,4.628433716e0,-3.090599920e0,1.019502395e0,5.658055467e0
9.738592833e0,4.860741840e0,-3.236171031e0,7.964463935e-1,5.893550800e0
9.748644833e0,4.924171266e0,-3.366710413e0,5.740240842e-1,5.992637592e0
9.758696833e0,4.873273593e0,-3.519169837e0,4.235624347e-1,6.026006720e0
9.768748833e0,4.715282995e0,-3.696201307e0,3.665204340e-1,6.002510730e0
9.778800833e0,4.417194865e0,-3.911927312e0,4.130760381e-1,5.914847216e0
9.788853833e0,4.021081672e0,-4.072467003e0,5.603018385e-1,5.750480281e0
9.798905833e0,3.534979831e0,-4.206580788e0,7.113694058e-1,5.540528022e0
9.808957833e0,2.917640743e0,-4.295629790e0,7.446399897e-1,5.245908073e0
9.819009833e0,2.347307421e0,-4.346874788e0,7.853038663e-1,5.002186993e0
9.829061833e0,2.011246887e0,-4.336486332e0,8.005451455e-1,4.846761834e0
9.839114833e0,1.837996811e0,-4.330014634e0,6.992544866e-1,4.755650938e0
9.849166833e0,1.602028331e0,-4.602708599e0,3.114466792e-1,4.883484437e0
9.859218833e0,1.118562414e0,-5.191735761e0,-2.889377860e-1,5.318720441e0
9.869270833e0,5.746918362e-1,-5.849511269e0,-9.768153816e-1,5.958290114e0
9.879323833e0,3.022145104e-1,-6.397463204e0,-1.597828860e0,6.600903432e0
9.889375833e0,3.198666698e-1,-6.872667589e0,-1.998582988e0,7.164510342e0
9.899427833e0,4.616990715e-1,-7.207799585e0,-2.007681255e0,7.496420807e0
9.909479833e0,6.908251405e-1,-7.154770017e0,-1.986847041e0,7.457582352e0
9.919531833e0,5.973000956e-1,-6.740272009e0,-1.383755863e0,6.906722410e0
9.929584833e0,1.087798458e-1,-5.752876675e0,-4.996194345e-1,5.775555616e0
9.939636833e0,-6.375096434e-1,-4.513398812e0,2.737221980e-1,4.566411197e0
9.949688833e0,-1.664715160e0,-3.376171793e0,8.117391282e-1,3.850809389e0
9.959740833e0,-2.748253922e0,-2.441874440e0,8.546079898e-1,3.774388058e0
9.969792833e0,-3.395439538e0,-1.718852191e0,8.691500151e-1,3.903701354e0
9.979845833e0,-3.411717017e0,-1.172394220e0,1.019367324e0,3.748790598e0
9.989897833e0,-3.008340413e0,-9.807049495e-1,6.880395269e-1,3.238100157e0
9.999949833e0,-2.232810168e0,-1.325357089e0,2.819042069e-1,2.611796822e0
1.001000183e1,-1.173373044e0,-2.000199451e0,-2.741817892e-2,2.319127832e0
1.002005483e1,7.055952072e-2,-2.624631504e0,-5.826574981e-2,2.626226204e0
1.003010683e1,1.246735720e0,-2.937021339e0,2.147805101e-1,3.197901651e0
1.004015883e1,2.245503303e0,-2.909805181e0,6.024620175e-1,3.724541819e0
1.005021083e1,3.004284199e0,-2.603757236e0,1.036975045e0,4.108599827e0
1.006026283e1,3.337451531e0,-2.194921964e0,1.412223033e0,4.236819449e0
1.007031583e1,3.402231079e0,-1.693180575e0,1.647078788e0,4.141848055e0
1.008036783e1,3.365654406e0,-1.035558557e0,1.696915777e0,3.908904483e0
1.009041983e1,3.286631041e0,-3.210764587e-1,1.523494377e0,3.636766257e0
1.010047183e1,3.076592622e0,2.874549687e-1,1.205043391e0,3.316652243e0
1.011052383e1,2.957440401e0,8.742724684e-1,8.587625096e-1,3.201293351e0
1.012057683e1,2.974751667e0,1.332932450e0,5.621285087e-1,3.307845954e0
1.013062883e1,3.136081610e0,1.582985703e0,3.071660057e-1,3.526358257e0
1.014068083e1,3.341125921e0,1.757969187e0,1.090903330e-1,3.776966876e0
1.015073283e1,3.483552985e0,1.842690956e0,-7.311186690e-2,3.941572871e0
1.016078583e1,3.557326720e0,1.746557761e0,-1.936779453e-1,3.967688061e0
1.017083783e1,3.715080505e0,1.617257111e0,-1.583999391e-1,4.054927159e0
1.018088983e1,3.840532517e0,1.454171250e0,7.284227371e-2,4.107263083e0
1.019094183e1,3.877651811e0,1.272713145e0,2.407731378e-1,4.088270297e0
1.020099383e1,3.673219119e0,1.122185934e0,3.870949952e-1,3.860269744e0
1.021104683e1,3.038447142e0,8.553231043e-1,6.456998384e-1,3.221904239e0
1.022109883e1,2.312187874e0,7.176603520e-1,1.122187103e0,2.668436441e0
1.023115083e1,1.650440353e0,8.050364649e-1,1.695634067e0,2.499442329e0
1.024120283e1,1.031189809e0,9.586188465e-1,2.102407903e0,2.530300675e0
1.025125483e1,4.759715402e-1,1.119255894e0,2.210537539e0,2.523045555e0
1.026130783e1,-5.822364986e-2,1.328094463e0,2.128100569e0,2.509190492e0
1.027135983e1,-5.426455861e-1,1.600334977e0,2.111628377e0,2.704535205e0
1.028141183e1,-1.091053603e0,1.835087821e0,2.247203089e0,3.099655949e0
1.029146383e1,-1.588077459e0,2.080030609e0,2.497156355e0,3.617223688e0
1.030151683e1,-1.972193334e0,2.284393135e0,2.729199600e0,4.068971492e0
1.031156883e1,-2.425658357e0,2.264437172e0,2.869508218e0,4.386977500e0
1.032162083e1,-2.972965928e0,2.182888979e0,2.916034513e0,4.701785616e0
1.033167283e1,-3.460962852e0,2.247807106e0,2.788624853e0,4.980695656e0
1.034172483e1,-3.768245144e0,2.403861106e0,2.567961459e0,5.154866219e0
1.035177783e1,-3.803455322e0,2.639874026e0,2.239970668e0,5.143216489e0
1.036182983e1,-3.957509574e0,2.660708240e0,1.792986115e0,5.094707997e0
1.037188183e1,-4.403141667e0,2.407185833e0,1.318160629e0,5.188424386e0
1.038193383e1,-4.892999759e0,2.035209362e0,1.028111835e0,5.398197638e0
1.039198583e1,-5.197039186e0,1.855947179e0,1.016146678e0,5.611266372e0
1.040203883e1,-5.508840791e0,2.055840093e0,1.006868316e0,5.965533434e0
1.041209083e1,-6.060378823e0,2.238481967e0,8.683765016e-1,6.518670933e0
1.042214283e1,-6.795515918e0,2.031839612e0,5.894671655e-1,7.117224201e0
1.043219483e1,-7.479218565e0,1.502876510e0,1.911641908e-1,7.631113411e0
1.044224708e1,-7.890414650e0,9.033135420e-1,-1.333177229e-1,7.943071970e0
1.045230008e1,-7.967104976e0,4.048208660e-1,-1.926674368e-1,7.979709417e0
1.046235208e1,-7.856032437e0,-6.016901851e-2,4.083812356e-2,7.856368991e0
1.047240408e1,-7.717003775e0,-3.331720090e-1,5.032091133e-1,7.740566534e0
1.048245608e1,-7.556145703e0,-1.636249745e-1,1.064173368e0,7.632468538e0
1.049250908e1,-7.363157766e0,5.095152622e-1,1.561315191e0,7.544097243e0
1.050256108e1,-7.258093241e0,1.404114114e0,1.773718370e0,7.602468730e0
1.051261308e1,-7.158561936e0,2.142428001e0,1.703678666e0,7.664041214e0
1.052266508e1,-6.927112768e0,2.467066584e0,1.456568316e0,7.496192373e0
1.053271708e1,-6.398536752e0,2.430758298e0,1.250556875e0,6.957999064e0
1.054277008e1,-5.511790711e0,2.173552145e0,1.200095477e0,6.045196021e0
1.055282208e1,-4.687682968e0,1.721723759e0,1.172121082e0,5.129578164e0
1.056287408e1,-4.009931032e0,1.096967477e0,1.159874235e0,4.316039014e0
1.057292608e1,-3.261291547e0,6.800463831e-1,1.300003270e0,3.576100409e0
1.058297808e1,-2.398224390e0,3.375609291e-1,1.488429794e0,2.842683742e0
1.059303108e1,-1.550217907e0,7.557467759e-2,1.655681212e0,2.269398018e0
1.060308308e1,-8.736459392e-1,-7.862107694e-2,1.664832104e0,1.881782250e0
1.061313508e1,-3.447208446e-1,-1.092628258e-1,1.483628061e0,1.527063538e0
1.062318708e1,-3.691931963e-3,-3.584869444e-2,1.178493378e0,1.179044274e0
1.063324008e1,1.902789223e-1,9.791454971e-2,9.235734864e-1,9.480407756e-1
1.064329208e1,3.169319522e-1,3.918944263e-1,7.061968857e-1,8.676065613e-1
1.065334408e1,4.009576106e-1,8.572503465e-1,5.178147271e-1,1.078785082e0
1.066339608e1,3.840486324e-1,1.296483246e0,4.736489896e-1,1.432726605e0
1.067344808e1,4.130601776e-1,1.669343816e0,4.931032974e-1,1.788988079e0
1.068350108e1,4.821894693e-1,1.943162493e0,4.391422312e-1,2.049690967e0
1.069355308e1,5.325439364e-1,2.077468359e0,3.484999001e-1,2.172770123e0
1.070360508e1,5.156086457e-1,2.089182671e0,2.363683937e-1,2.164810967e0
1.071365708e1,4.747471333e-1,1.992360966e0,2.141496320e-1,2.059307438e0
1.072370908e1,6.095681387e-1,1.791091032e0,1.967272317e-1,1.902178226e0
1.073376208e1,9.274210274e-1,1.546907213e0,1.854081917e-1,1.813121035e0
1.074381408e1,1.258788586e0,1.273989300e0,2.145460367e-1,1.803781428e0
1.075386608e1,1.641649649e0,9.395253485e-1,3.164670986e-1,1.917778109e0
1.076391808e1,1.978694853e0,4.722632360e-1,5.099719298e-1,2.097221318e0
1.077397008e1,2.340470856e0,-4.736800164e-2,8.267343128e-1,2.482647212e0
1.078402308e1,2.804076705e0,-4.918040460e-1,1.260532225e0,3.113464128e0
1.079407508e1,3.204639629e0,-8.890723559e-1,1.781731979e0,3.772894598e0
1.080412708e1,3.536467363e0,-1.208643449e0,2.187393090e0,4.330370529e0
1.081417908e1,3.881191716e0,-1.477131220e0,2.372470329e0,4.782696021e0
1.082423208e1,4.156704916e0,-1.705169706e0,2.360898689e0,5.075395758e0
1.083428408e1,4.384445195e0,-1.875194166e0,2.190863997e0,5.247818392e0
1.084433608e1,4.508776880e0,-2.004180820e0,1.976857073e0,5.315427885e0
1.085438808e1,4.511936131e0,-2.116282469e0,1.734132135e0,5.276687730e0
1.086444008e1,4.428995715e0,-2.235287925e0,1.464180806e0,5.172653148e0
1.087449308e1,4.306756164e0,-2.312325869e0,1.214167314e0,5.036784872e0
1.088454508e1,4.106732272e0,-2.374994864e0,1.043014634e0,4.857337757e0
1.089459708e1,3.779054891e0,-2.462470380e0,9.700460601e-1,4.613675932e0
1.090464908e1,3.360959092e0,-2.596685614e0,9.268117476e-1,4.347160246e0
1.091470108e1,2.877851025e0,-2.762903536e0,8.569258261e-1,4.080439234e0
1.092475408e1,2.358161607e0,-2.915275252e0,7.226924658e-1,3.818643785e0
1.093480608e1,1.865748866e0,-3.066602070e0,5.979807115e-1,3.639044932e0
1.094485808e1,1.538068562e0,-3.231694403e0,6.044196653e-1,3.629714417e0
1.095491008e1,1.476367573e0,-3.472892341e0,5.555755341e-1,3.814355332e0
1.096496308e1,1.515349206e0,-3.749185852e0,4.770427501e-1,4.071885012e0
1.097501508e1,1.450887746e0,-3.954465514e0,4.088653851e-1,4.232025952e0
1.098506708e1,9.489563227e-1,-4.267003576e0,3.073846185e-1,4.382045518e0
1.099511908e1,2.982056594e-1,-4.810972095e0,1.089370994e-1,4.821436135e0
1.100517108e1,-3.134458423e-2,-5.396559048e0,-1.714555291e-1,5.399373023e0
1.101522408e1,-1.150088847e-2,-5.866214426e0,-3.863325548e-1,5.878933305e0
1.102527608e1,2.080445176e-1,-6.217356098e0,-3.927434421e-1,6.233221220e0
1.103532808e1,2.298657417e-1,-6.445612686e0,-1.667321666e-1,6.451864906e0
1.104538008e1,8.172594845e-2,-6.488883251e0,3.796749151e-1,6.500495213e0
1.105543208e1,-1.405407518e-1,-6.156257372e0,1.199543427e0,6.273608289e0
1.106548508e1,-4.249206698e-1,-5.403729488e0,2.012150867e0,5.781833712e0
1.107553708e1,-6.802773482e-1,-4.406272851e0,2.509479947e0,5.116200476e0
1.108558908e1,-1.054520200e0,-3.423127858e0,2.570377529e0,4.408702510e0
1.109564108e1,-1.600795738e0,-2.617585901e0,2.196904171e0,3.773683993e0
1.110569408e1,-2.331991809e0,-2.067846181e0,1.759949931e0,3.579329181e0
1.111574608e1,-2.950695637e0,-1.660703385e0,1.443691578e0,3.680867541e0
1.112579808e1,-3.056246066e0,-1.281009759e0,1.192351352e0,3.521835852e0
1.113585008e1,-2.634826709e0,-1.050864228e0,9.171264195e-1,2.981232678e0
1.114590208e1,-1.862189081e0,-1.176539311e0,6.738997900e-1,2.303504689e0
1.115595508e1,-8.355033821e-1,-1.539956628e0,4.293435037e-1,1.803848154e0
1.116600708e1,1.470030946e-1,-1.850218369e0,2.750132632e-1,1.876312932e0
1.117605908e1,1.023504814e0,-1.977769824e0,2.632141668e-1,2.242413271e0
1.118611108e1,1.790184129e0,-1.977312864e0,2.133035034e-1,2.675822072e0
1.119616308e1,2.383806911e0,-1.751020356e0,2.751302075e-1,2.970573060e0
1.120621608e1,2.881547050e0,-1.293101801e0,3.906992555e-1,3.182463131e0
1.121626808e1,3.106249700e0,-7.638720667e-1,3.938521107e-1,3.222950080e0
1.122632008e1,3.105073240e0,-2.067353261e-1,3.256484332e-1,3.128940112e0
1.123637208e1,3.032127471e0,2.933805370e-1,2.059798658e-1,3.053243660e0
1.124642408e1,2.922396868e0,7.604695719e-1,5.579120815e-2,3.020236759e0
1.125647708e1,2.862168208e0,1.242283358e0,-8.689547181e-2,3.121349966e0
1.126652908e1,2.842695810e0,1.598966436e0,-2.321152387e-1,3.269784491e0
1.127658108e1,2.816635355e0,1.808125433e0,-3.931779633e-1,3.370065461e0
1.128663308e1,2.901539265e0,1.945181537e0,-5.332127848e-1,3.533691723e0
1.129668608e1,3.157763085e0,1.886470814e0,-6.728326732e-1,3.739377440e0
1.130673808e1,3.544382154e0,1.708715166e0,-8.474592570e-1,4.024989386e0
1.131679008e1,3.759965487e0,1.433877319e0,-7.284666643e-1,4.089499762e0
1.132684208e1,3.943739381e0,1.093822845e0,-5.848882109e-1,4.134201609e0
1.133689408e1,4.010067857e0,7.072625408e-1,-3.543430958e-1,4.087349208e0
1.134694708e1,4.093690642e0,4.085089973e-1,3.249633953e-2,4.114151029e0
1.135699908e1,4.123355321e0,2.069180515e-1,3.553913554e-1,4.143811917e0
1.136705108e1,3.989020219e0,4.800388634e-2,6.888101900e-1,4.048338692e0
1.137710308e1,3.640331454e0,-3.094492704e-2,9.816972220e-1,3.770503961e0
1.138715508e1,3.268619277e0,-4.324015975e-2,1.142982068e0,3.462968336e0
1.139720808e1,2.939062017e0,-3.175038099e-3,1.227249874e0,3.185002021e0
1.140726008e1,2.469368048e0,1.082085729e-2,1.193972054e0,2.742893529e0
1.141731208e1,1.763695657e0,-8.708258271e-3,1.137154733e0,2.098527839e0
1.142736408e1,1.123613239e0,9.769060135e-2,1.117437994e0,1.587676868e0
1.143741608e1,6.428025430e-1,2.654986739e-1,1.106082848e0,1.306561871e0
1.144746833e1,-7.315685391e-2,2.739671963e-1,1.119416108e0,1.154773732e0
1.145752033e1,-7.581178218e-1,2.610699928e-1,1.207863357e0,1.449770348e0
1.146757233e1,-1.566186068e0,3.213249654e-1,1.338643864e0,2.085223232e0
1.147762433e1,-2.472228506e0,5.959353554e-1,1.401857089e0,2.903834711e0
1.148767733e1,-3.312700852e0,9.066604882e-1,1.353076254e0,3.691454391e0
1.149772933e1,-4.066008169e0,1.067657139e0,1.115172637e0,4.349244096e0
1.150778133e1,-4.809950001e0,1.111235853e0,8.598311614e-1,5.010965352e0
1.151783333e1,-5.889826067e0,1.121027600e0,6.222664639e-1,6.027766546e0
1.152788533e1,-7.002663472e0,1.290444826e0,2.663733443e-1,7.125552492e0
1.153793833e1,-7.803273010e0,1.641332729e0,-3.334653930e-1,7.980992543e0
1.154799033e1,-8.328047751e0,1.959178602e0,-1.049181692e0,8.619486201e0
1.155804233e1,-8.972409162e0,2.017303433e0,-1.841817967e0,9.379015552e0
1.156809433e1,-9.775519554e0,1.753510392e0,-2.572003055e0,1.025918033e1
1.157814633e1,-1.042561124e1,1.411428396e0,-2.784245288e0,1.088290042e1
1.158819933e1,-1.079047983e1,1.202754718e0,-2.821660452e0,1.121796959e1
1.159825133e1,-1.090583370e1,9.939740360e-1,-2.531786490e0,1.123989039e1
1.160830333e1,-1.107770442e1,1.007044317e0,-1.895242368e0,1.128368810e1
1.161835533e1,-1.100835878e1,1.279760209e0,-1.477508365e0,1.118055366e1
1.162840733e1,-1.060505995e1,1.929424460e0,-1.220071832e0,1.084797449e1
1.163846033e1,-1.016198484e1,2.803868544e0,-1.297594802e0,1.062126956e1
1.164851233e1,-9.656637474e0,3.555282533e0,-1.541470034e0,1.040513388e1
1.165856433e1,-8.943087130e0,3.939238780e0,-1.848039258e0,9.945434061e0
1.166861633e1,-8.055585628e0,3.869689658e0,-1.918871259e0,9.140515564e0
1.167866933e1,-7.066146108e0,3.436589318e0,-1.594125234e0,8.017593293e0
1.168872133e1,-6.040926890e0,2.723768122e0,-1.033578397e0,6.706712666e0
1.169877333e1,-5.145228762e0,1.891806398e0,-3.111185043e-1,5.490820083e0
1.170882533e1,-4.124161068e0,9.921181297e-1,6.035952079e-1,4.284545492e0
1.171887733e1,-3.022837999e0,4.395673603e-1,1.566050559e0,3.432678748e0
1.172893033e1,-2.407368851e0,-1.473305386e-1,2.205115415e0,3.267975683e0
1.173898233e1,-1.708968058e0,-3.906688499e-1,2.429851395e0,2.996226255e0
1.174903433e1,-8.915085983e-1,-3.457786059e-1,2.628983002e0,2.797481376e0
1.175908633e1,-2.412496859e-1,-2.720282596e-1,2.878321726e0,2.901195743e0
1.176913833e1,1.511657274e-1,-1.782640636e-1,2.731360731e0,2.741342846e0
1.177919133e1,4.653108966e-1,1.339480162e-2,2.247213029e0,2.294920489e0
1.178924333e1,7.720464742e-1,3.737522703e-1,1.797623541e0,1.991782346e0
1.179929533e1,8.988135248e-1,7.973736888e-1,1.521945888e0,1.939069323e0
1.180934733e1,8.687705308e-1,1.073733566e0,1.411560543e0,1.974884597e0
1.181939933e1,7.766225052e-1,1.191230441e0,1.559067960e0,2.110181363e0
1.182945233e1,6.195774025e-1,1.434016190e0,1.857967392e0,2.427410435e0
1.183950433e1,7.236233425e-1,1.702985771e0,1.998867162e0,2.723832082e0
1.184955633e1,6.111854786e-1,1.783299032e0,1.855882275e0,2.645373725e0
1.185960833e1,7.779901689e-1,1.726859368e0,1.690807191e0,2.538925154e0
1.186966133e1,1.026686869e0,1.558289988e0,1.573333120e0,2.440846312e0
1.187971333e1,1.259738173e0,1.252237365e0,1.530892859e0,2.344924654e0
1.188976533e1,1.492763166e0,8.691114235e-1,1.573153026e0,2.336344790e0
1.189981733e1,1.606719552e0,5.008274692e-1,1.666417869e0,2.368401230e0
1.190986933e1,1.705781325e0,1.095142561e-1,1.717959321e0,2.423441258e0
1.191992233e1,2.000784464e0,-1.983609438e-1,1.797669150e0,2.697053931e0
1.192997433e1,2.390184469e0,-4.996980795e-1,1.842126700e0,3.058776020e0
1.194002633e1,2.876478099e0,-8.397051913e-1,1.743959550e0,3.467077440e0
1.195007833e1,3.398709301e0,-1.141030340e0,1.504427192e0,3.887991297e0
1.196013033e1,3.793150774e0,-1.542994841e0,1.268433568e0,4.286927757e0
1.197018333e1,4.095070585e0,-1.878551345e0,1.216530173e0,4.666744466e0
1.198023533e1,4.335322736e0,-1.986016152e0,1.249272242e0,4.929499418e0
1.199028733e1,4.484867615e0,-2.022045525e0,1.282755153e0,5.084109206e0
1.200033933e1,4.441414617e0,-2.030304717e0,1.333403150e0,5.062239130e0
1.201039133e1,4.280879896e0,-2.039983613e0,1.329175029e0,4.924852493e0
1.202044433e1,4.073482665e0,-2.139432473e0,1.223879539e0,4.761125229e0
1.203049633e1,3.852674260e0,-2.371668383e0,1.066236851e0,4.648093254e0
1.204054833e1,3.624375572e0,-2.553505973e0,1.019838610e0,4.549347407e0
1.205060033e1,3.277766662e0,-2.702733056e0,1.024095967e0,4.370044944e0
1.206065333e1,2.779725391e0,-2.948273721e0,1.021198672e0,4.178760331e0
1.207070533e1,1.881245157e0,-3.414241844e0,9.374384773e-1,4.009354264e0
1.208075733e1,8.969196117e-1,-3.873295928e0,8.888732582e-1,4.073939347e0
1.209080933e1,3.450108665e-1,-4.007522272e0,8.914454484e-1,4.119944447e0
1.210086133e1,1.673297703e-1,-4.057151976e0,8.525526935e-1,4.149135754e0
1.211091433e1,2.043063927e-1,-4.315525818e0,6.458354938e-1,4.368364416e0
1.212096633e1,4.869070029e-1,-4.478311132e0,3.356477201e-1,4.517190323e0
1.213101833e1,5.527986914e-1,-4.851176088e0,-6.447256923e-2,4.882996266e0
1.214107033e1,3.032950759e-1,-5.663090925e0,-2.939559031e-1,5.678820018e0
1.215112233e1,1.799439687e-1,-6.531387831e0,-3.047065938e-1,6.540967279e0
1.216117533e1,4.281652898e-1,-7.191423873e0,-1.419084064e-1,7.205556247e0
1.217122733e1,8.918424743e-1,-7.695459709e0,1.930247748e-1,7.749370407e0
1.218127933e1,1.466967005e0,-7.992834479e0,7.197150636e-1,8.158148379e0
1.219133133e1,2.039860237e0,-8.071494148e0,1.376888309e0,8.438357007e0
1.220138333e1,2.436297950e0,-7.725872247e0,1.949518417e0,8.332182892e0
1.221143633e1,2.792178791e0,-6.811074189e0,2.534897209e0,7.785415716e0
1.222148833e1,2.815027370e0,-5.621300874e0,3.084837196e0,7.002829653e0
1.223154033e1,2.263627918e0,-4.478527479e0,3.326592082e0,6.020584242e0
1.224159233e1,1.445458022e0,-3.582078861e0,3.154673417e0,4.987243951e0
1.225164433e1,6.650804347e-1,-2.845745718e0,2.714686226e0,3.988749426e0
1.226169733e1,1.384456944e-1,-2.199451802e0,2.250083427e0,3.149544550e0
1.227174933e1,-2.071861464e-1,-1.754800580e0,1.745549993e0,2.483786616e0
1.228180133e1,-3.045762008e-1,-1.572913290e0,1.139835096e0,1.966226570e0
1.229185333e1,6.707691908e-2,-1.600027998e0,5.530325800e-1,1.694235504e0
1.230190633e1,6.419394940e-1,-1.615619306e0,1.678911030e-2,1.738560879e0
1.231195833e1,1.083829953e0,-1.727393804e0,-2.876998939e-1,2.059453313e0
1.232201033e1,1.370799018e0,-1.791215285e0,-3.065982046e-1,2.276300640e0
1.233206233e1,1.513016751e0,-1.498537584e0,-1.519937297e-1,2.134932475e0
1.234211433e1,1.599963679e0,-9.852871200e-1,2.482691221e-3,1.879010550e0
1.235216733e1,1.484016316e0,-4.882810986e-1,3.375539124e-2,1.562645924e0
1.236221933e1,1.347571539e0,5.175458282e-2,4.331156887e-2,1.349260346e0
1.237227133e1,1.318917258e0,5.716176626e-1,-5.166022338e-2,1.438387384e0
1.238232333e1,1.226717777e0,9.125799170e-1,-1.990982777e-1,1.541842642e0
1.239237533e1,1.173382984e0,1.221576321e0,-3.480841631e-1,1.729230731e0
1.240242833e1,1.307875961e0,1.560638815e0,-5.527841464e-1,2.109906005e0
1.241248033e1,1.530770068e0,1.855660373e0,-7.510415945e-1,2.520078549e0
1.242253233e1,1.753225048e0,2.052696045e0,-9.035293774e-1,2.846704140e0
1.243258433e1,1.927348114e0,2.127878374e0,-1.002998702e0,3.041141812e0
1.244263633e1,2.059801582e0,2.079711351e0,-9.986635760e-1,3.092783665e0
1.245268925e1,2.251151714e0,1.954618358e0,-9.751239283e-1,3.136731362e0
1.246274125e1,2.352007413e0,1.732633494e0,-8.316273359e-1,3.037360979e0
1.247279325e1,2.431620762e0,1.420930122e0,-4.290962396e-1,2.848849860e0
1.248284525e1,2.437456284e0,1.079434016e0,-1.360552065e-1,2.669247450e0
1.249289825e1,2.598223724e0,7.269001222e-1,1.213641503e-1,2.700718342e0
1.250295025e1,2.454203879e0,4.626854968e-1,4.934189739e-1,2.545713423e0
1.251300225e1,2.491844160e0,4.104230833e-1,8.698656412e-1,2.671029887e0
1.252305425e1,2.388524444e0,4.319958007e-1,1.220126650e0,2.716685192e0
1.253310625e1,2.298603623e0,3.606808197e-1,1.535358816e0,2.787650617e0
1.254315925e1,1.866082742e0,3.204361886e-1,1.910896826e0,2.690068927e0
1.255321125e1,1.254904280e0,5.167821819e-1,2.196100763e0,2.581609408e0
1.256326325e1,6.403356028e-1,7.347453314e-1,2.322735082e0,2.518924105e0
1.257331525e1,-8.315559268e-2,8.694593328e-1,2.147131501e0,2.317983621e0
1.258336725e1,-7.458298981e-1,9.754944956e-1,1.819493297e0,2.195087152e0
1.259342025e1,-1.282327722e0,1.191342707e0,1.596174098e0,2.368846467e0
1.260347225e1,-2.148886251e0,1.471567594e0,1.423993916e0,2.968329829e0
1.261352425e1,-2.907116924e0,1.755706022e0,1.385691876e0,3.667965979e0
1.262357625e1,-3.767657499e0,1.904767921e0,1.435366312e0,4.459109811e0
1.263362825e1,-4.414382939e0,2.127075552e0,1.489669404e0,5.121556606e0
1.264368125e1,-4.950593664e0,2.349341083e0,1.618253185e0,5.713713724e0
1.265373325e1,-5.573608060e0,2.454485714e0,1.625578576e0,6.303341387e0
1.266378525e1,-6.397071440e0,2.503738566e0,1.378581662e0,7.006548167e0
1.267383725e1,-7.295598451e0,2.615702221e0,9.990587016e-1,7.814459237e0
1.268389025e1,-7.973413537e0,2.762503002e0,6.456162232e-1,8.463070753e0
1.269394225e1,-8.507552594e0,2.759741946e0,2.568253528e-1,8.947658130e0
1.270399425e1,-9.136991910e0,2.403926010e0,-2.495329247e-1,9.451229979e0
1.271404625e1,-9.802900311e0,1.724672509e0,-7.474554972e-1,9.981484834e0
1.272409825e1,-1.040650955e1,9.377284992e-1,-1.031168248e0,1.049943254e1
1.273415125e1,-1.068792669e1,3.167296386e-1,-9.179152089e-1,1.073194590e1
1.274420325e1,-1.079699129e1,1.138634151e-1,-5.749825159e-1,1.081289003e1
1.275425525e1,-1.086111303e1,3.084786326e-1,-1.742464417e-1,1.086688995e1
1.276430725e1,-1.076298856e1,1.020555478e0,2.683719957e-1,1.081459568e1
1.277435925e1,-1.043098834e1,2.079171653e0,4.014715809e-1,1.064376117e1
1.278441225e1,-1.005103860e1,3.162709830e0,2.256662714e-1,1.053930907e1
1.279446425e1,-9.676273009e0,3.870883659e0,-1.866782069e-2,1.042182077e1
1.280451625e1,-8.928143985e0,4.035887992e0,-4.027163069e-1,9.806239204e0
1.281456825e1,-7.956203427e0,3.614376249e0,-6.342555217e-1,8.761687549e0
1.282462025e1,-6.965517281e0,2.941437156e0,-3.658636455e-1,7.569962995e0
1.283467325e1,-5.967484108e0,2.193004078e0,7.299247406e-2,6.358102025e0
1.284472525e1,-5.090612260e0,1.390947354e0,6.095264773e-1,5.312305549e0
1.285477725e1,-4.139048663e0,6.187529451e-1,1.292321198e0,4.380031178e0
1.286482925e1,-2.974038892e0,4.992118835e-2,1.848318755e0,3.501953980e0
1.287488125e1,-2.153909009e0,-4.576902205e-1,2.183546645e0,3.101077282e0
1.288493425e1,-1.551873838e0,-8.426977962e-1,2.400816461e0,2.980330798e0
1.289498625e1,-9.685392326e-1,-1.003726022e0,2.552689701e0,2.908910257e0
1.290503825e1,-3.192240608e-1,-1.013217223e0,2.587135649e0,2.796745252e0
1.291509025e1,2.535118818e-2,-8.714485556e-1,2.351674122e0,2.508074250e0
1.292514325e1,3.984427232e-1,-5.128499293e-1,2.031406918e0,2.132694474e0
1.293519525e1,6.448455602e-1,-1.109678739e-1,1.693834879e0,1.815823852e0
1.294524725e1,7.524033380e-1,1.670736623e-1,1.485089280e0,1.673174994e0
1.295529925e1,9.292687476e-1,3.633243459e-1,1.427291307e0,1.741466469e0
1.296535125e1,8.433567774e-1,2.914959794e-1,1.622749693e0,1.851900950e0
1.297540425e1,8.222980303e-1,2.098103768e-1,2.047799587e0,2.216681662e0
1.298545625e1,1.158031120e0,5.034984773e-1,2.320698497e0,2.642004599e0
1.299550825e1,1.498364214e0,7.146233082e-1,2.253487092e0,2.798925841e0
1.300556025e1,1.725217470e0,6.624234599e-1,2.013463567e0,2.732986589e0
1.301561225e1,1.864025692e0,4.746196640e-1,1.767499271e0,2.612261334e0
1.302566525e1,2.022505116e0,2.597023290e-1,1.604615139e0,2.594756634e0
1.303571725e1,2.044047428e0,-5.986847162e-2,1.703551782e0,2.661541432e0
1.304576925e1,2.053101257e0,-4.538725734e-1,1.973278577e0,2.883583435e0
1.305582125e1,2.107507260e0,-8.118499330e-1,2.369273071e0,3.273246408e0
1.306587325e1,2.258246725e0,-1.071022212e0,2.942922349e0,3.861030795e0
1.307592625e1,2.644786856e0,-1.208668884e0,3.445939600e0,4.508910924e0
1.308597825e1,3.192837608e0,-1.334261229e0,3.633608326e0,5.017726027e0
1.309603025e1,3.678569321e0,-1.424399275e0,3.426619231e0,5.225179891e0
1.310608225e1,3.981196060e0,-1.629478084e0,2.837288890e0,5.153186310e0
1.311613425e1,4.106021250e0,-1.858759689e0,2.250684521e0,5.037854594e0
1.312618725e1,4.227101299e0,-1.887500508e0,1.888669367e0,4.999811550e0
1.313623925e1,4.235926502e0,-1.877686834e0,1.629399147e0,4.911590654e0
1.314629125e1,4.224268908e0,-2.022986342e0,1.390617425e0,4.885768964e0
1.315634325e1,4.244224870e0,-2.134687457e0,1.284373662e0,4.921376941e0
1.316639625e1,4.210470648e0,-2.162148905e0,1.340448753e0,4.919324530e0
1.317644825e1,4.202206779e0,-2.354056862e0,1.533881371e0,5.054989375e0
1.318650025e1,4.112713389e0,-2.600550623e0,2.030451483e0,5.272571307e0
1.319655225e1,3.999125962e0,-2.715568863e0,2.730142171e0,5.551666326e0
1.320660425e1,3.842087291e0,-2.831347534e0,3.356321665e0,5.834642983e0
1.321665725e1,3.687668758e0,-3.059205050e0,3.620632185e0,6.005548586e0
1.322670925e1,3.574859596e0,-3.286563505e0,3.535522453e0,6.006749522e0
1.323676125e1,3.423927172e0,-3.445737287e0,3.220777359e0,5.828360793e0
1.324681325e1,3.135731946e0,-3.573928427e0,2.761103178e0,5.498133320e0
1.325686525e1,2.617179812e0,-3.596677896e0,2.391914660e0,5.050443327e0
1.326691825e1,2.149249363e0,-3.538438459e0,2.030404851e0,4.611113034e0
1.327697025e1,1.802863816e0,-3.588841166e0,1.365522491e0,4.242021985e0
1.328702225e1,1.226748767e0,-3.982865440e0,3.715449464e-1,4.184038157e0
1.329707425e1,6.802089357e-1,-4.717191819e0,-6.676725054e-1,4.812522148e0
1.330712625e1,6.400104976e-1,-5.596806303e0,-1.528648113e0,5.837004308e0
1.331717925e1,9.361836648e-1,-6.333597575e0,-1.956707568e0,6.694744402e0
1.332723125e1,1.294475312e0,-6.893736277e0,-1.889514874e0,7.264264081e0
1.333728325e1,1.604449078e0,-7.182420330e0,-1.245684975e0,7.464124175e0
1.334733525e1,1.492977174e0,-7.047934370e0,-7.420821983e-2,7.204711416e0
1.335738725e1,1.022844663e0,-6.431531421e0,1.214288936e0,6.624598497e0
1.336744025e1,5.373328060e-1,-5.412053000e0,2.240366524e0,5.882030804e0
1.337749225e1,-1.794604039e-1,-4.498258908e0,2.741936005e0,5.271124387e0
1.338754425e1,-9.197208291e-1,-3.763529949e0,2.600663767e0,4.666207894e0
1.339759625e1,-1.449007866e0,-3.108778329e0,2.173121790e0,4.060367571e0
1.340764925e1,-1.681425333e0,-2.545585042e0,1.698037273e0,3.491493224e0
1.341770125e1,-1.690295559e0,-2.118591827e0,1.265067326e0,2.990974046e0
1.342775325e1,-1.515918725e0,-1.910098535e0,1.006335050e0,2.638028852e0
1.343780525e1,-1.134043502e0,-1.887141489e0,8.538642240e-1,2.361449085e0
1.344785758e1,-6.704522717e-1,-1.961760147e0,8.825682056e-1,2.253205663e0
1.345791058e1,-4.631813407e-2,-1.956563434e0,1.069148179e0,2.230103960e0
1.346796258e1,6.010996163e-1,-1.883789865e0,1.202424350e0,2.314262155e0
1.347801458e1,1.139523513e0,-1.756597137e0,1.268922980e0,2.448328587e0
1.348806658e1,1.569544709e0,-1.540083513e0,1.270872442e0,2.539772545e0
1.349811858e1,1.936144665e0,-1.227682568e0,1.221466393e0,2.597660640e0
1.350817158e1,2.255800250e0,-7.468218783e-1,1.109229162e0,2.622359056e0
1.351822358e1,2.471161389e0,-2.014775097e-1,8.868863744e-1,2.633210823e0
1.352827558e1,2.568380120e0,3.337105376e-1,6.072163886e-1,2.660197531e0
1.353832758e1,2.678082072e0,7.956224477e-1,3.685224476e-1,2.817968675e0
1.354837958e1,2.729420625e0,1.173429762e0,1.721372779e-1,2.975954569e0
1.355843258e1,2.707670737e0,1.491583782e0,1.011093222e-2,3.091343596e0
1.356848458e1,2.699219756e0,1.687595315e0,-1.700692639e-1,3.187897237e0
1.357853658e1,2.750272965e0,1.725780557e0,-3.054012430e-1,3.261225204e0
1.358858858e1,2.881362863e0,1.623531466e0,-2.871374649e-1,3.319722020e0
1.359864058e1,3.144336709e0,1.487697723e0,-3.615935701e-1,3.497262896e0
1.360869358e1,3.294333578e0,1.210629748e0,-2.938401282e-1,3.522016486e0
1.361874558e1,3.217126358e0,9.523430300e-1,-2.907513365e-2,3.355250305e0
1.362879758e1,3.179664416e0,7.201255381e-1,2.598830080e-1,3.270532949e0
1.363884958e1,3.214620241e0,4.547046322e-1,4.785606873e-1,3.281700767e0
1.364890258e1,2.927634219e0,3.165723485e-1,7.325906324e-1,3.034460283e0
1.365895458e1,2.656960174e0,2.672972775e-1,9.326348434e-1,2.828549620e0
1.366900658e1,2.349459196e0,1.829330653e-1,1.136387797e0,2.616256915e0
1.367905858e1,1.916002176e0,1.854871291e-1,1.280957134e0,2.312211278e0
1.368911058e1,1.125200758e0,3.857951957e-1,1.371665576e0,1.815593878e0
1.369916358e1,3.371317434e-1,6.142897654e-1,1.309428982e0,1.485130966e0
1.370921558e1,-5.036189300e-1,9.174158567e-1,1.180786071e0,1.577827502e0
1.371926758e1,-1.345374740e0,1.126642097e0,1.021582176e0,2.030513666e0
1.372931958e1,-1.956998175e0,1.368428557e0,7.697010829e-1,2.508959611e0
1.373937158e1,-2.691154692e0,1.628658890e0,6.238223349e-1,3.206867265e0
1.374942458e1,-3.619401346e0,1.731397392e0,5.496300121e-1,4.049678528e0
1.375947658e1,-4.488261339e0,2.013424975e0,6.252473744e-1,4.958760355e0
1.376952858e1,-5.259110888e0,2.318703427e0,6.356361955e-1,5.782617598e0
1.377958058e1,-5.825591480e0,2.578808629e0,6.578877747e-1,6.404731560e0
1.378963258e1,-6.243294346e0,2.845597199e0,6.260357253e-1,6.889707428e0
1.379968558e1,-6.751872885e0,2.963206340e0,4.501783025e-1,7.387221383e0
1.380973758e1,-7.422257329e0,2.968674656e0,3.230675087e-1,8.000456592e0
1.381978958e1,-8.005798341e0,3.021577340e0,2.501046362e-1,8.560682743e0
1.382984158e1,-8.400160877e0,3.094056501e0,1.152551255e-1,8.952607002e0
1.383989358e1,-8.829993208e0,2.970656862e0,-1.844877668e-1,9.318133825e0
1.384994658e1,-9.309288306e0,2.462069553e0,-3.830440807e-1,9.636978676e0
1.385999858e1,-9.675153267e0,1.755997213e0,-3.530338311e-1,9.839550286e0
1.387005058e1,-9.990491853e0,1.170591524e0,-2.030760654e-1,1.006088723e1
1.388010258e1,-1.019497717e1,7.989220315e-1,-4.173917949e-2,1.022631791e1
1.389015458e1,-1.022975875e1,6.992772907e-1,5.431178950e-2,1.025377504e1
1.390020758e1,-1.016305488e1,9.324180579e-1,6.098046586e-2,1.020592017e1
1.391025958e1,-9.884030428e0,1.630033570e0,1.180493637e-1,1.001823351e1
1.392031158e1,-9.444494058e0,2.501931776e0,8.920863032e-2,9.770674941e0
1.393036358e1,-9.090049878e0,3.347426881e0,-1.865028635e-1,9.688604483e0
1.394041658e1,-8.622350979e0,3.893226455e0,-4.712622658e-1,9.472287831e0
1.395046858e1,-8.013536546e0,3.886454794e0,-4.658535182e-1,8.918425777e0
1.396052058e1,-7.264871918e0,3.402693009e0,-1.898473978e-1,8.024507819e0
1.397057258e1,-6.351538587e0,2.690492787e0,2.194014915e-1,6.901371666e0
1.398062458e1,-5.403605527e0,1.955841011e0,6.228595908e-1,5.780330512e0
1.399067758e1,-4.589495353e0,1.294938412e0,1.117812362e0,4.897942176e0
1.400072958e1,-3.651866257e0,6.668878090e-1,1.602149953e0,4.043235212e0
1.401078158e1,-2.666997505e0,1.623339093e-1,2.049719081e0,3.367577215e0
1.402083358e1,-2.001908299e0,-4.626030511e-1,2.423830517e0,3.177513619e0
1.403088558e1,-1.517826671e0,-6.034232998e-1,2.484458542e0,2.973289715e0
1.404093858e1,-9.860095435e-1,-5.605585313e-1,2.449381095e0,2.699242197e0
1.405099058e1,-5.469736952e-1,-5.488243389e-1,2.555234410e0,2.670133193e0
1.406104258e1,-3.482625031e-1,-4.083075607e-1,2.494355539e0,2.551433203e0
1.407109458e1,-5.053105295e-2,-3.183645201e-1,2.206901740e0,2.230319404e0
1.408114658e1,2.912749547e-1,-3.049697185e-1,2.114436210e0,2.156081658e0
1.409119958e1,4.225531322e-1,-2.431038380e-1,2.323047908e0,2.373647448e0
1.410125158e1,7.823925376e-1,-2.738981992e-1,2.400948608e0,2.540022150e0
1.411130358e1,9.364064437e-1,-1.378223813e-1,2.634586973e0,2.799446473e0
1.412135558e1,1.232470268e0,6.225238144e-2,3.146762134e0,3.380084355e0
1.413140758e1,1.334881327e0,2.062026447e-1,3.749665031e0,3.985525754e0
1.414146058e1,1.386516334e0,3.114653903e-1,4.330916859e0,4.558100380e0
1.415151258e1,1.442979972e0,4.359245449e-1,4.829553376e0,5.059328733e0
1.416156458e1,1.480222058e0,5.707326865e-1,5.286728457e0,5.519627788e0
1.417161658e1,1.482329979e0,6.436381102e-1,5.514396815e0,5.746315726e0
1.418166958e1,1.508228467e0,5.988174480e-1,5.411269473e0,5.649351534e0
1.419172158e1,1.627468396e0,5.050871658e-1,5.043998841e0,5.324067123e0
1.420177358e1,1.875780934e0,4.407099062e-1,4.621843904e0,5.007416540e0
1.421182558e1,2.103521798e0,3.489670926e-1,4.167025251e0,4.680884685e0
1.422187758e1,2.275249844e0,2.291588134e-1,3.611019362e0,4.274194245e0
1.423193058e1,2.400959718e0,6.526486695e-2,3.149727842e0,3.961016605e0
1.424198258e1,2.512189547e0,-1.556353390e-1,2.780805956e0,3.750759982e0
1.425203458e1,2.546160116e0,-4.331158349e-1,2.426136074e0,3.543537344e0
1.426208658e1,2.646232288e0,-8.892018718e-1,2.048690118e0,3.462709414e0
1.427213858e1,2.856904544e0,-1.508775181e0,1.610423763e0,3.609954407e0
1.428219158e1,3.225993660e0,-2.029109839e0,1.266651921e0,4.016058879e0
1.429224358e1,3.809996018e0,-2.302712461e0,9.989371526e-1,4.562502578e0
1.430229558e1,4.550418996e0,-2.528044272e0,6.934025200e-1,5.251488164e0
1.431234758e1,5.240415586e0,-2.878374058e0,2.998124012e-1,5.986391251e0
1.432239958e1,5.724173278e0,-3.331341775e0,-3.044621801e-1,6.629984537e0
1.433245258e1,5.407992693e0,-3.649052576e0,-5.714494821e-1,6.548933057e0
1.434250458e1,4.568782761e0,-3.907407707e0,-2.273958413e-1,6.016088412e0
1.435255658e1,3.996072546e0,-4.027598979e0,2.950937712e-1,5.681305278e0
1.436260858e1,3.494232924e0,-3.983921740e0,8.872518253e-1,5.372942579e0
1.437266058e1,2.993601336e0,-3.825475059e0,1.305991988e0,5.030061974e0
1.438271358e1,2.509147825e0,-3.669257630e0,1.398834078e0,4.660044114e0
1.439276558e1,2.185074669e0,-3.613537173e0,1.053343228e0,4.352210262e0
1.440281758e1,2.272406343e0,-3.762218126e0,4.110990945e-1,4.414421625e0
1.441286958e1,2.520610122e0,-4.139399789e0,-4.214159218e-1,4.864740217e0
1.442292158e1,2.564982303e0,-4.721266451e0,-1.286234246e0,5.524842953e0
1.443297458e1,2.316832902e0,-5.475829750e0,-1.945192208e0,6.255893132e0
1.444302658e1,2.101850663e0,-6.109780778e0,-2.366248891e0,6.880867037e0
1.445307858e1,2.097957587e0,-6.695606883e0,-2.535600629e0,7.460686839e0
1.446313058e1,2.125583927e0,-7.291025344e0,-2.261239915e0,7.924037074e0
1.447318358e1,2.040043840e0,-7.820224673e0,-1.626543367e0,8.243987878e0
1.448323558e1,1.822832057e0,-8.103888892e0,-7.883168634e-1,8.343690752e0
1.449328758e1,1.682569048e0,-8.001431640e0,1.593003007e-1,8.177977958e0
1.450333958e1,1.723951548e0,-7.310319402e0,1.149711117e0,7.598329708e0
1.451339158e1,1.435015479e0,-6.227578785e0,1.879093966e0,6.661306259e0
1.452344458e1,6.194282985e-1,-5.064466435e0,2.069319094e0,5.505868978e0
1.453349658e1,-4.160381645e-1,-3.887691188e0,1.723586097e0,4.272935708e0
1.454354858e1,-1.167521151e0,-2.865413120e0,1.048629203e0,3.267004927e0
1.455360058e1,-1.475837231e0,-1.975249089e0,4.449368584e-1,2.505528548e0
1.456365258e1,-1.553365463e0,-1.308949510e0,-1.606780143e-1,2.037672816e0
1.457370558e1,-1.242329843e0,-9.874947363e-1,-7.191420364e-1,1.742324471e0
1.458375758e1,-5.109109926e-1,-1.003643577e0,-1.156917225e0,1.614555027e0
1.459380958e1,2.592930239e-1,-1.353886824e0,-1.286020238e0,1.885229550e0
1.460386158e1,1.050074562e0,-1.715007062e0,-9.389423811e-1,2.219350942e0
1.461391358e1,1.916864056e0,-1.987326221e0,-4.521791832e-1,2.797909814e0
1.462396658e1,2.638795214e0,-2.162163231e0,1.107930422e-1,3.413277768e0
1.463401858e1,3.221990072e0,-2.091681186e0,6.475323558e-1,3.895593454e0
1.464407058e1,3.702731186e0,-1.875424546e0,1.114539018e0,4.297631055e0
1.465412258e1,3.842955603e0,-1.559884524e0,1.518631833e0,4.416762404e0
1.466417458e1,3.792923318e0,-1.224566002e0,1.730051948e0,4.344986643e0
1.467422758e1,3.661227649e0,-8.993298340e-1,1.691261519e0,4.132039154e0
1.468427958e1,3.554458076e0,-4.364493325e-1,1.475120362e0,3.873066010e0
1.469433158e1,3.426855458e0,4.727239966e-2,1.242272540e0,3.645382569e0
1.470438358e1,3.246482888e0,4.846078777e-1,1.010211754e0,3.434388407e0
1.471443558e1,3.057520759e0,8.349391258e-1,8.179892170e-1,3.273325968e0
1.472448858e1,2.859338740e0,1.076012810e0,6.518195343e-1,3.123858240e0
1.473454058e1,2.733138285e0,1.072512667e0,6.948866165e-1,3.017150264e0
1.474459258e1,2.853450594e0,9.668967497e-1,7.689047652e-1,3.109386460e0
1.475464458e1,2.949404572e0,8.239463603e-1,8.644248801e-1,3.181997063e0
1.476469758e1,2.811461738e0,6.765170038e-1,1.219026350e0,3.138155127e0
1.477474958e1,2.668897265e0,5.402985138e-1,1.784650324e0,3.255750586e0
1.478480158e1,2.463737179e0,3.528525674e-1,2.417673984e0,3.469820357e0
1.479485358e1,2.045028591e0,1.465867728e-1,3.015859348e0,3.646784505e0
1.480490558e1,1.736930612e0,7.048233747e-2,3.532210590e0,3.936801667e0
1.481495858e1,1.460305272e0,6.910239458e-2,3.932789301e0,4.195723813e0
1.482501058e1,1.042973118e0,4.283904076e-2,4.317801554e0,4.442188466e0
1.483506258e1,5.234404063e-1,8.670953035e-2,4.704092009e0,4.733919099e0
1.484511458e1,-1.830412388e-2,3.042744845e-1,5.083975085e0,5.093105209e0
1.485516658e1,-6.112205619e-1,6.078163129e-1,5.163480846e0,5.234937028e0
1.486521958e1,-1.114732488e0,8.672531784e-1,4.882145573e0,5.082332338e0
1.487527158e1,-1.653276252e0,1.253865230e0,4.286516612e0,4.762323492e0
1.488532358e1,-2.440793874e0,1.550757605e0,3.670100799e0,4.672468701e0
1.489537558e1,-2.999067898e0,1.997938040e0,3.177012119e0,4.804120177e0
1.490542758e1,-3.584457216e0,2.277650710e0,2.502200164e0,4.929201959e0
1.491548058e1,-4.269907596e0,2.391607681e0,1.798823390e0,5.214179107e0
1.492553258e1,-4.867685993e0,2.415897599e0,1.165900887e0,5.557900055e0
1.493558458e1,-5.492550448e0,2.355239754e0,6.212912214e-1,6.008433032e0
1.494563658e1,-6.029685618e0,2.470847978e0,2.397955199e-1,6.520713172e0
1.495568858e1,-6.520278706e0,2.492632365e0,8.777876683e-3,6.980496226e0
1.496574158e1,-6.981531050e0,2.313121090e0,-2.273005682e-1,7.358258662e0
1.497579358e1,-7.371014085e0,2.203197529e0,-4.812608949e-1,7.708277372e0
1.498584558e1,-8.002500511e0,2.008651893e0,-9.407427388e-1,8.304197358e0
1.499589758e1,-8.592309739e0,1.388984444e0,-1.332430758e0,8.805250488e0
1.500594958e1,-8.867131798e0,4.965858990e-1,-1.247606370e0,8.968229788e0
1.501600258e1,-9.045969474e0,-2.541603380e-1,-6.981587183e-1,9.076430289e0
1.502605458e1,-9.207558448e0,-9.621909106e-1,9.568613928e-2,9.258190955e0
1.503610658e1,-9.375564156e0,-1.188710876e0,8.229336226e-1,9.486382690e0
1.504615858e1,-9.337294714e0,-6.719216770e-1,1.334117095e0,9.456025579e0
1.505621058e1,-9.352411521e0,4.892324406e-1,1.417160422e0,9.471815734e0
1.506626358e1,-9.352230842e0,1.783349319e0,6.438275599e-1,9.542487644e0
1.507631558e1,-9.048408347e0,2.791945487e0,-4.283974973e-1,9.479038856e0
1.508636758e1,-8.401932583e0,3.475970900e0,-1.244978632e0,9.177407947e0
1.509641958e1,-7.563920746e0,3.755728594e0,-1.534579529e0,8.583316879e0
1.510647158e1,-6.660030668e0,3.581123718e0,-1.039246761e0,7.632855915e0
1.511652458e1,-5.656882936e0,2.911078413e0,-5.095346311e-1,6.382344993e0
1.512657658e1,-4.754921855e0,2.191625304e0,1.662854576e-1,5.238335057e0
1.513662858e1,-4.091185110e0,1.303921489e0,8.507464886e-1,4.377416640e0
1.514668058e1,-3.189108839e0,7.186321592e-1,1.110779843e0,3.452633665e0
1.515673258e1,-2.309411616e0,2.768715084e-1,1.316578372e0,2.672717429e0
1.516678558e1,-1.515838618e0,-2.279671508e-1,1.580892400e0,2.202034631e0
1.517683758e1,-9.142343867e-1,-3.935094273e-1,1.715414028e0,1.983259809e0
1.518688958e1,-5.304974109e-1,-4.141986305e-1,1.501880729e0,1.645792737e0
1.519694158e1,-1.426901883e-1,-3.504218799e-1,1.108902083e0,1.171673936e0
1.520699458e1,2.838413894e-1,-1.630279738e-1,5.001205409e-1,5.977161617e-1
1.521704658e1,6.220437580e-1,1.761578965e-1,-3.297186434e-2,6.473462638e-1
1.522709858e1,8.139248174e-1,6.543554717e-1,-2.262229995e-1,1.068565177e0
1.523715058e1,7.451639003e-1,1.107183148e0,-1.578614471e-1,1.343891364e0
1.524720258e1,5.660935056e-1,1.424826706e0,4.895281635e-2,1.533945689e0
1.525725558e1,3.761595690e-1,1.742135804e0,3.169459490e-1,1.810245264e0
1.526730758e1,6.283417940e-1,2.021311115e0,4.899697745e-1,2.172690133e0
1.527735958e1,7.394020540e-1,2.132245075e0,5.692200484e-1,2.327487040e0
1.528741158e1,9.719323719e-1,2.111282222e0,6.511739286e-1,2.413750742e0
1.529746358e1,1.133224892e0,1.954441772e0,7.348084813e-1,2.375707221e0
1.530751658e1,1.301319478e0,1.648680925e0,7.793040383e-1,2.240289259e0
1.531756858e1,1.492576640e0,1.375023631e0,8.885195017e-1,2.215387532e0
1.532762058e1,1.673829800e0,1.116531091e0,1.068024929e0,2.277943179e0
1.533767258e1,1.842107404e0,8.841183025e-1,1.325494791e0,2.435561804e0
1.534772458e1,1.981911407e0,6.263864851e-1,1.643820135e0,2.649995752e0
1.535777758e1,2.099832789e0,2.939716905e-1,1.897700976e0,2.845520355e0
1.536782958e1,2.318637938e0,-7.718733966e-2,1.977848761e0,3.048594019e0
1.537788158e1,2.568298259e0,-4.942183614e-1,1.965676028e0,3.271741124e0
1.538793358e1,2.933062774e0,-8.930706820e-1,1.926783273e0,3.621177469e0
1.539798558e1,3.402435147e0,-1.179293935e0,1.858491887e0,4.052319238e0
1.540803858e1,3.690919225e0,-1.379258770e0,1.930293356e0,4.387627140e0
1.541809058e1,3.901055877e0,-1.538507396e0,2.160303524e0,4.717218807e0
1.542814258e1,3.980753426e0,-1.595306956e0,2.297787936e0,4.865308985e0
1.543819458e1,3.922907506e0,-1.672374136e0,2.308088391e0,4.849052544e0
1.544824688e1,3.737991065e0,-1.801260802e0,2.183828042e0,4.688946854e0
1.545829987e1,3.408170096e0,-2.022237314e0,1.998730338e0,4.438467091e0
1.546835187e1,3.046269547e0,-2.302595809e0,1.836412801e0,4.237229943e0
1.547840388e1,2.845395470e0,-2.576305144e0,1.719047488e0,4.205799310e0
1.548845588e1,2.705759282e0,-2.835447602e0,1.633329061e0,4.246016982e0
1.549850788e1,2.538934711e0,-3.155128038e0,1.515086081e0,4.323945910e0
1.550856088e1,2.401126363e0,-3.534439841e0,1.416026646e0,4.501422471e0
1.551861288e1,2.231153651e0,-3.840091052e0,1.431351614e0,4.666166880e0
1.552866488e1,2.069311493e0,-3.980208465e0,1.423426883e0,4.706405590e0
1.553871688e1,1.820580879e0,-4.098636509e0,1.182660761e0,4.638105481e0
1.554876887e1,1.376994728e0,-4.270621541e0,8.419376582e-1,4.565433369e0
1.555882188e1,6.790757453e-1,-4.560420366e0,4.570499504e-1,4.633300383e0
1.556887388e1,-8.578742445e-2,-5.101647125e0,1.843394120e-2,5.102401658e0
1.557892588e1,-4.741811228e-1,-5.784604837e0,-4.832197487e-1,5.824088099e0
1.558897787e1,-4.062241977e-1,-6.349472766e0,-8.971160781e-1,6.425390242e0
1.559902987e1,-1.519048154e-2,-6.661929844e0,-9.227841854e-1,6.725553557e0
1.560908288e1,3.717227018e-1,-6.790280905e0,-4.633602655e-1,6.816215613e0
1.561913487e1,5.740480578e-1,-6.506590374e0,5.061922896e-1,6.551448703e0
1.562918687e1,6.561961752e-1,-5.690416133e0,1.594984775e0,5.946041172e0
1.563923887e1,5.908786833e-1,-4.537154587e0,2.362859845e0,5.149564643e0
1.564929088e1,2.263006943e-1,-3.452864166e0,2.567259793e0,4.308631546e0
1.565934387e1,-4.523897195e-1,-2.509259507e0,2.246609012e0,3.398277767e0
1.566939587e1,-1.171141747e0,-1.650523383e0,1.784878950e0,2.698442754e0
1.567944788e1,-1.814828973e0,-1.103527176e0,1.206916181e0,2.442953765e0
1.568949988e1,-1.945485007e0,-7.233075929e-1,5.569256562e-1,2.149011860e0
1.569955287e1,-1.578945277e0,-5.091568279e-1,-3.484238863e-2,1.659374236e0
1.570960487e1,-9.361550134e-1,-6.412205788e-1,-4.335388809e-1,1.214704080e0
1.571965688e1,-4.332494438e-2,-1.048200822e0,-6.080285668e-1,1.212559587e0
1.572970888e1,9.001864511e-1,-1.538236962e0,-6.211912340e-1,1.887428713e0
1.573976088e1,1.542601908e0,-1.969668506e0,-4.084876549e-1,2.534970776e0
1.574981388e1,2.170331499e0,-2.193356372e0,-2.612713197e-2,3.085746849e0
1.575986588e1,2.869908752e0,-2.193470685e0,2.775632522e-1,3.622807095e0
1.576991788e1,3.380578254e0,-2.073116861e0,4.709464431e-1,3.993483868e0
1.577996988e1,3.742783443e0,-1.784567878e0,4.596244794e-1,4.171853914e0
1.579002188e1,4.126170756e0,-1.379078676e0,3.187568682e-1,4.362195438e0
1.580007488e1,4.333376783e0,-9.600809428e-1,6.988592148e-2,4.439008200e0
1.581012688e1,4.289308072e0,-5.596592295e-1,-1.884148300e-1,4.329767008e0
1.582017888e1,4.142848184e0,-1.115508413e-1,-3.709976470e-1,4.160922244e0
1.583023087e1,3.948862712e0,2.817246974e-1,-4.812346190e-1,3.988041158e0
1.584028287e1,3.735619435e0,6.363650510e-1,-5.415637781e-1,3.827937351e0
1.585033588e1,3.584959491e0,9.340570325e-1,-5.420310438e-1,3.744087973e0
1.586038788e1,3.677212182e0,1.021705333e0,-5.306394982e-1,3.853225856e0
1.587043987e1,3.896123165e0,9.427091575e-1,-4.791629505e-1,4.037087243e0
1.588049187e1,3.990303683e0,7.347388995e-1,-2.670448239e-1,4.066162524e0
1.589054388e1,4.034764157e0,5.063536727e-1,8.119443655e-3,4.066421248e0
1.590059687e1,4.157279697e0,3.759911692e-1,2.024855697e-1,4.179155925e0
1.591064887e1,4.023178484e0,2.468454713e-1,2.981653136e-1,4.041757087e0
1.592070088e1,3.990934598e0,3.077983090e-1,3.488765339e-1,4.017961374e0
1.593075288e1,3.948962114e0,3.030047616e-1,4.500952721e-1,3.986063148e0
1.594080488e1,3.813076916e0,2.080842787e-1,5.254015625e-1,3.854724560e0
1.595085787e1,3.767437059e0,1.883809161e-1,5.994466084e-1,3.819477137e0
1.596090988e1,3.417867703e0,2.304071939e-1,8.002913763e-1,3.517864892e0
1.597096188e1,2.722581137e0,2.849465132e-1,1.021858750e0,2.921957882e0
1.598101388e1,1.724539778e0,3.003065640e-1,1.046211891e0,2.039308902e0
1.599106588e1,4.983897650e-1,4.679637784e-1,9.542638403e-1,1.173883270e0
1.600111888e1,-5.298542172e-1,6.481737953e-1,1.017672289e0,1.317775265e0
1.601117088e1,-1.392057155e0,6.768584812e-1,1.127461292e0,1.914975063e0
1.602122288e1,-2.162048918e0,7.902511954e-1,1.437353196e0,2.713841684e0
1.603127488e1,-2.908958212e0,1.048228596e0,1.745286868e0,3.550612246e0
1.604132687e1,-3.674493812e0,1.339096584e0,1.968461641e0,4.378347367e0
1.605137988e1,-4.265539725e0,1.552308871e0,2.121526544e0,5.010525607e0
1.606143188e1,-4.708925318e0,1.722404374e0,2.127521694e0,5.446742424e0
1.607148387e1,-5.038055146e0,1.873599923e0,1.940766889e0,5.714801173e0
1.608153587e1,-5.718340096e0,2.005941124e0,1.734951915e0,6.303433302e0
1.609158788e1,-6.446575137e0,2.154825853e0,1.429206271e0,6.945807082e0
1.610164088e1,-7.043111002e0,2.294660845e0,1.019988298e0,7.477383039e0
1.611169287e1,-7.582096231e0,2.494604630e0,4.309503186e-1,7.993557011e0
1.612174487e1,-8.120710162e0,2.670782992e0,-1.250959164e-1,8.549541760e0
1.613179688e1,-8.911992806e0,2.462207547e0,-3.215777113e-1,9.251459021e0
1.614184888e1,-9.728174064e0,1.834231789e0,-4.796471000e-2,9.899700879e0
1.615190187e1,-1.046534307e1,1.019035787e0,5.816354779e-1,1.053091351e1
1.616195388e1,-1.093040136e1,2.257305908e-1,1.412780857e0,1.102363724e1
1.617200588e1,-1.100793310e1,-3.598446679e-1,2.119539660e0,1.121590513e1
1.618205788e1,-1.070574315e1,-5.196145731e-1,2.585028312e0,1.102566584e1
1.619210988e1,-1.007642487e1,-8.923435807e-3,2.724316006e0,1.043821419e1
1.620216288e1,-9.444498151e0,1.127406328e0,2.468769293e0,9.826719299e0
1.621221488e1,-8.970183712e0,2.260402009e0,1.823798018e0,9.428671819e0
1.622226688e1,-8.461116931e0,2.862508516e0,1.004208929e0,8.988486541e0
1.623231888e1,-7.702327264e0,2.966648596e0,3.491512068e-1,8.261280514e0
1.624237188e1,-6.630526788e0,2.706772605e0,1.855519601e-1,7.164142164e0
1.625242388e1,-5.540794070e0,2.154596057e0,2.025037692e-1,5.948419191e0
1.626247588e1,-4.628008039e0,1.639774446e0,7.788934907e-1,4.971317101e0
1.627252788e1,-3.671801169e0,1.036841728e0,1.551550487e0,4.118795152e0
1.628257987e1,-2.666492890e0,6.369646829e-1,2.153248858e0,3.486027680e0
1.629263288e1,-2.013216230e0,2.243149799e-1,2.511566234e0,3.226657984e0
1.630268488e1,-1.472339426e0,3.722337484e-2,2.448065472e0,2.856955288e0
1.631273687e1,-8.666140777e-1,1.666456461e-4,2.361541883e0,2.515531763e0
1.632278887e1,-3.877651227e-1,-1.527275187e-1,2.392391793e0,2.428420469e0
1.633284088e1,-1.694008541e-1,-3.284913129e-1,2.072495302e0,2.105193570e0
1.634289388e1,-4.972472191e-3,-3.487162471e-1,1.595889924e0,1.633552079e0
1.635294587e1,1.986544740e-1,-2.767878932e-1,1.178446015e0,1.226707035e0
1.636299787e1,2.726176590e-1,-5.446681380e-3,8.376585927e-1,8.809210931e-1
1.637304988e1,1.765449822e-1,3.476590705e-1,6.649119618e-1,7.708066404e-1
1.638310188e1,8.123946011e-2,7.076528424e-1,5.719126181e-1,9.134858718e-1
1.639315487e1,5.303015292e-2,1.015580083e0,4.632362314e-1,1.117498504e0
1.640320688e1,1.069467437e-1,1.337025501e0,4.013651615e-1,1.400060280e0
1.641325888e1,1.363325107e-1,1.595613935e0,3.611608396e-1,1.641647811e0
1.642331088e1,1.940848750e-1,1.751061578e0,4.226799802e-1,1.811779224e0
1.643336288e1,3.372580433e-1,1.753122137e0,6.048956652e-1,1.884961268e0
1.644341588e1,5.726961815e-1,1.576787070e0,7.337910658e-1,1.831034601e0
1.645346796e1,7.879696119e-1,1.218032323e0,7.893635881e-1,1.651542831e0
1.646351996e1,1.051391940e0,7.791356385e-1,7.482991773e-1,1.507457798e0
1.647357196e1,1.590739111e0,3.829452628e-1,8.187943786e-1,1.829623521e0
1.648362396e1,2.165365459e0,-2.733631790e-2,8.665795791e-1,2.332491160e0
1.649367696e1,2.655881363e0,-5.919791293e-1,9.540492475e-1,2.883462341e0
1.650372896e1,3.158909140e0,-1.077271424e0,1.141853628e0,3.527470819e0
1.651378096e1,3.741262583e0,-1.375494917e0,1.323036622e0,4.199935462e0
1.652383296e1,4.166605421e0,-1.646075406e0,1.462199185e0,4.712556783e0
1.653388496e1,4.511454320e0,-1.888124699e0,1.549341409e0,5.130174828e0
1.654393796e1,4.754933549e0,-2.020576705e0,1.579601920e0,5.402523994e0
1.655398996e1,5.035383554e0,-2.039295104e0,1.615188074e0,5.667684233e0
1.656404196e1,5.248428025e0,-2.040848417e0,1.562057349e0,5.843892723e0
1.657409396e1,5.294998759e0,-2.033739080e0,1.375780261e0,5.836598138e0
1.658414596e1,5.159860250e0,-2.019028070e0,1.198939410e0,5.669046468e0
1.659419896e1,4.928470139e0,-2.064220322e0,1.179377550e0,5.471905962e0
1.660425096e1,4.690300182e0,-2.130369581e0,1.220492831e0,5.294052615e0
1.661430296e1,4.482155676e0,-2.194820515e0,1.322053705e0,5.162826997e0
1.662435496e1,4.227772560e0,-2.295223640e0,1.455356773e0,5.025950229e0
1.663440696e1,3.958310058e0,-2.536047064e0,1.565508960e0,4.954853331e0
