"Time (s)","Linear Acceleration x (m/s^2)","Linear Acceleration y (m/s^2)","Linear Acceleration z (m/s^2)","Absolute acceleration (m/s^2)"
3.751708326e-3,-1.476738140e0,3.878232147e0,6.487690419e-1,4.200278728e0
1.380470833e-2,-8.781830862e-1,4.054139491e0,2.695417312e0,4.946971501e0
2.385670833e-2,-4.863828000e-1,2.434295279e0,4.806069204e0,5.409312611e0
3.390870833e-2,-2.261145482e0,-9.504558411e-1,5.587028005e0,6.101723291e0
4.396170833e-2,-3.192035955e0,-2.773477641e0,5.475024589e0,6.917887395e0
5.401370833e-2,-3.524673821e0,-2.709621076e0,4.057840778e0,6.019256075e0
6.406570833e-2,-3.971590547e0,-1.546761910e0,2.150300108e0,4.773865774e0
7.411770833e-2,-4.549264463e0,-4.917063975e-1,6.372050035e-1,4.619914777e0
8.417070833e-2,-4.322724617e0,-6.266925868e-1,-7.673102295e-1,4.434800639e0
9.422270833e-2,-3.881207211e0,-1.412207830e0,-1.622705839e0,4.437485167e0
1.042747083e-1,-3.389068412e0,-2.112034759e0,-2.304473058e0,4.610539187e0
1.143267083e-1,-2.430765899e0,-2.326798312e0,-2.735235681e0,4.336372617e0
1.243797083e-1,-7.845986921e-1,-2.105678836e0,-2.725313541e0,3.532253156e0
1.344317083e-1,5.222721326e-1,-1.982525364e0,-2.489478377e0,3.225008153e0
1.444837083e-1,1.409541207e0,-2.081040423e0,-2.417199774e0,3.487175133e0
1.545357083e-1,2.423304268e0,-2.457783544e0,-1.203774472e0,3.655431097e0
1.645887083e-1,2.920876007e0,-1.984274559e0,5.192537999e-1,3.569101663e0
1.746407083e-1,8.128170624e-1,-1.618745520e0,-4.769532877e-1,1.873097188e0
1.846927083e-1,2.548760372e-1,-1.423366656e0,2.214691401e-2,1.446175964e0
1.947447083e-1,-1.313816732e-1,-1.532105864e0,1.847076952e-1,1.548782249e0
2.047977083e-1,-5.382961348e-1,-2.135525948e0,-1.145761907e-1,2.205303042e0
2.148497083e-1,-2.225327486e-1,-2.901223223e0,-4.355778050e-1,2.942166725e0
2.249017083e-1,1.110257614e-1,-3.410818300e0,-8.226143646e-1,3.510370719e0
2.349537083e-1,9.458827338e-1,-3.524074189e0,-1.225264744e0,3.849034519e0
2.450067083e-1,1.836935834e0,-2.973348336e0,-1.636342131e0,3.859112482e0
2.550587083e-1,2.108572330e0,-2.112599015e0,-1.932645691e0,3.555878406e0
2.651107083e-1,2.419330500e0,-1.655980589e0,-2.228846340e0,3.682823345e0
2.751627083e-1,2.390487647e0,-1.164183560e0,-2.630055966e0,3.739912958e0
2.852157083e-1,2.317285769e0,-6.205568111e-1,-2.998256305e0,3.839849601e0
2.952677083e-1,2.254265356e0,-2.122761476e-1,-2.961937494e0,3.728249881e0
3.053197083e-1,2.336654379e0,1.506254447e-1,-3.313478531e0,4.057312126e0
3.153717083e-1,1.562677154e0,-8.736775142e-1,-3.115562561e0,3.593327477e0
3.254247083e-1,3.627007404e-1,-1.885982571e0,-2.453843690e0,3.116060163e0
3.354767083e-1,3.880109981e-1,-1.545613225e0,-1.795509188e0,2.400692821e0
3.455287083e-1,1.027965947e0,-1.012692727e0,-8.643985677e-1,1.682095548e0
3.555807083e-1,1.223396559e0,-1.014708847e0,-8.644172788e-2,1.591793126e0
3.656337083e-1,4.369577479e-1,-1.431462126e0,4.085203993e-1,1.551420256e0
3.756857083e-1,-2.189536679e-1,-1.874976942e0,8.638290489e-1,2.075976846e0
3.857377083e-1,-5.836801761e-1,-1.998819215e0,1.455700589e0,2.540674125e0
3.957897083e-1,-9.188285440e-1,-1.960454464e0,1.904433460e0,2.883486501e0
4.058427083e-1,-7.573512518e-1,-2.627412440e0,1.694507893e0,3.216867117e0
4.158947083e-1,1.035810864e-1,-3.391206154e0,1.055194384e0,3.553089276e0
4.259467083e-1,-5.181919456e-2,-3.226050378e0,1.526277652e0,3.569258990e0
4.359987083e-1,-7.676400125e-2,-3.617198700e0,2.615447867e0,4.464368566e0
4.460517083e-1,2.610273081e-1,-4.969922805e0,2.805618031e0,5.713121780e0
4.561037083e-1,-3.429520619e-1,-6.347284738e0,1.891874226e0,6.632105830e0
4.661557083e-1,4.000793588e-1,-5.728266914e0,1.044905038e0,5.836517101e0
4.762077083e-1,1.062480599e0,-5.032584491e0,5.246563348e-1,5.170206568e0
4.862607083e-1,1.728266793e0,-5.042905996e0,1.543632773e-1,5.333069943e0
4.963127083e-1,1.902170588e0,-5.402295751e0,-2.305852416e-1,5.732034707e0
5.063647083e-1,1.593285574e0,-5.699445403e0,-4.000414981e-1,5.931464408e0
5.164177083e-1,1.626128215e-1,-5.960654560e0,-4.141291948e-1,5.977235875e0
5.264697083e-1,6.112883896e-1,-5.256655058e0,-1.065884994e0,5.398352222e0
5.365217083e-1,1.243782876e0,-4.227263852e0,-1.547110112e0,4.670150449e0
5.465737083e-1,1.121229914e0,-3.443934590e0,-1.160992150e0,3.803385959e0
5.566267083e-1,5.925463092e-1,-3.445945740e0,-9.504064322e-2,3.497811587e0
5.666787083e-1,-1.468452197e-1,-3.985902192e0,1.119160657e0,4.142644129e0
5.767307083e-1,-4.223496491e-1,-4.131712747e0,2.354466313e0,4.774195332e0
5.867827083e-1,-1.167671424e0,-3.811998397e0,3.326149448e0,5.192115030e0
5.968357083e-1,-1.812667843e0,-3.128862053e0,3.558651699e0,5.073415454e0
6.068877083e-1,-1.963992614e0,-2.745509824e0,2.960777407e0,4.490132964e0
6.169397083e-1,-2.563888289e0,-1.820016916e0,1.497774814e0,3.482716486e0
6.269917083e-1,-2.364269024e0,-8.258797422e-1,-2.459116709e-1,2.516409728e0
6.370447083e-1,-1.493505177e0,-5.829513207e-1,-1.101320729e0,1.945070000e0
6.470967083e-1,-1.776344354e0,4.959248713e-1,-1.197310960e0,2.198839302e0
6.571487083e-1,-1.904149286e0,9.424629897e-1,-5.629196370e-1,2.197930733e0
6.672007083e-1,-3.238514888e0,1.626900924e0,-1.976903851e0,4.128308871e0
6.772537083e-1,-4.266404529e0,2.512229016e0,-2.571227714e0,5.578952786e0
6.873057083e-1,-4.852934053e0,3.005060125e0,9.517746806e-2,5.708801453e0
6.973577083e-1,-7.137302045e0,3.875740941e0,2.671639609e-1,8.126119917e0
7.074097083e-1,-6.707688984e0,4.615413136e0,2.375403292e0,8.481607792e0
7.174627083e-1,-6.137229363e0,5.211140331e0,2.356098710e0,8.388847891e0
7.275147083e-1,-4.402631789e0,4.998872954e0,3.941555081e-1,6.672874647e0
7.375667083e-1,-3.017925754e0,5.281346095e0,-9.834133798e-1,6.161784994e0
7.476187083e-1,-2.040492906e0,6.118967924e0,-1.936520641e0,6.734648613e0
7.576717083e-1,-1.205839124e0,6.834074796e0,-2.196650986e0,7.279004181e0
7.677237083e-1,-1.258342443e0,6.813944002e0,-2.290987478e0,7.298073869e0
7.777757083e-1,-2.690146047e0,6.309894717e0,-2.581310068e0,7.329039416e0
7.878277083e-1,-4.899818782e0,6.599369314e0,-2.450669091e0,8.577043689e0
7.978807083e-1,-6.073321050e0,7.009433963e0,-2.295772986e0,9.554473647e0
8.079327083e-1,-6.200167623e0,7.244635874e0,-2.651935662e0,9.897453726e0
8.179847083e-1,-5.966019380e0,7.094882249e0,-2.631613664e0,9.636188658e0
8.280367083e-1,-5.593503211e0,6.520085163e0,-1.745219479e0,8.766104023e0
8.380897083e-1,-4.855915548e0,5.738852128e0,-1.743226894e0,7.717070660e0
8.481417083e-1,-4.579677293e0,4.725077958e0,-2.940008097e0,7.207180685e0
8.581937083e-1,-3.653181295e0,4.439943165e0,-3.736726897e0,6.857255777e0
8.682457083e-1,-2.141605883e0,3.514806060e0,-4.583321863e0,6.160127977e0
8.782987083e-1,-7.301231074e-1,1.012232844e0,-5.892596478e0,6.023320374e0
8.883507083e-1,4.915648949e-1,-3.261533037e-1,-4.358734403e0,4.398474465e0
8.984027083e-1,2.856703400e0,-1.452028246e0,-3.314907591e0,4.610613048e0
9.084552500e-1,3.554836975e0,-2.990537395e0,-2.970620610e0,5.514051744e0
9.185082500e-1,3.722595931e0,-2.600175232e0,-8.074075109e-1,4.611999414e0
9.285602500e-1,2.880912042e0,-1.231992843e0,-1.067537271e0,3.310150508e0
9.386122500e-1,2.025493044e-1,-1.122820356e0,-6.574103495e-1,1.316791609e0
9.486642500e-1,-2.422178094e0,-1.404490382e0,2.705780040e-1,2.812961501e0
9.587172500e-1,-4.020283527e0,-6.227220351e-1,5.500630715e-1,4.105244421e0
9.687692500e-1,-4.304358805e0,-3.140767568e-1,-3.652141660e-1,4.331227346e0
9.788212500e-1,-3.610807108e0,-1.394195482e0,-1.568832518e0,4.176475127e0
9.888732500e-1,-3.235653845e0,-2.544497752e0,-9.096665418e-1,4.215615949e0
9.989262500e-1,-2.854970870e0,-3.222978251e0,-2.626338306e-1,4.313632345e0
1.008978250e0,-2.782792255e0,-2.371300301e0,-7.303675210e-1,3.728328656e0
1.019030250e0,-3.557776955e0,-1.139088772e0,-1.995108134e0,4.235062758e0
1.029083250e0,-4.245946875e0,-9.841764414e-1,-2.990274271e0,5.285679554e0
1.039135250e0,-6.002756267e0,-4.882205799e-1,-1.986284101e0,6.341669075e0
1.049187250e0,-5.360280583e0,1.080123988e-1,-1.410455566e0,5.543794685e0
1.059239250e0,-5.272972298e0,3.602533883e-1,-1.459182899e0,5.482994992e0
1.069292250e0,-4.752887024e0,5.272750103e-1,-1.316675436e0,4.959998810e0
1.079344250e0,-5.639039572e0,3.734803748e-1,-5.023246488e-1,5.673674730e0
1.089396250e0,-6.166492923e0,1.022064060e-1,9.949983220e-1,6.247087544e0
1.099448250e0,-6.440422697e0,7.895927989e-1,1.593928621e0,6.681549952e0
1.109501250e0,-6.185750143e0,9.976034027e-1,1.980205043e0,6.571143690e0
1.119553250e0,-6.631695646e0,5.832352030e-1,3.488019673e0,7.515705668e0
1.129605250e0,-5.464703668e0,6.599109113e-1,2.822602438e0,6.185915706e0
1.139657250e0,-2.218204992e0,-7.073025942e-2,-1.657055015e0,2.769705306e0
1.149710250e0,-8.058404571e-1,-1.398904245e0,-6.677555358e-1,1.747057350e0
1.159762250e0,1.090801588e0,-1.504331590e0,2.086682986e0,2.794120169e0
1.169814250e0,2.001592550e0,-1.994719148e0,4.339148569e0,5.178174149e0
1.179866250e0,3.360218250e0,-3.379797651e0,5.668753953e0,7.406002311e0
1.189919250e0,8.023704270e0,-3.611421066e0,2.135059925e0,9.054317931e0
1.199971250e0,1.025577535e1,-1.775557319e0,8.078220785e-2,1.040865301e1
1.210023250e0,9.852092936e0,-1.705595968e0,-1.642808567e0,1.013270017e1
1.220075250e0,7.938793927e0,-4.398690766e-1,-4.314515711e-1,7.962668164e0
1.230128250e0,6.736212287e0,8.297222400e-1,1.431643975e-1,6.788629539e0
1.240180250e0,6.422387545e0,1.106270397e0,2.406070769e-1,6.521409950e0
1.250232250e0,5.008682243e0,4.960602343e-2,-3.126775181e-1,5.018677695e0
1.260284250e0,3.943562211e0,1.264002548e0,-1.175939387e0,4.304906363e0
1.270337250e0,3.738036674e0,2.905794284e0,-1.078148141e0,4.855817337e0
1.280389250e0,2.419804124e0,3.826058319e0,-1.773641771e0,4.862096193e0
1.290441250e0,-5.085148036e-1,3.087346529e0,-3.163420851e0,4.449441243e0
1.300493250e0,-9.570629025e-1,2.509525555e0,-4.780341748e0,5.483188410e0
1.310546250e0,1.048913890e0,2.641458621e0,-2.538947867e0,3.811007776e0
1.320598250e0,2.441585587e0,2.837746142e0,-4.021261767e-1,3.765082842e0
1.330650250e0,3.688447022e0,2.818752632e0,1.568611785e0,4.900056201e0
1.340702250e0,3.597490659e0,1.932666741e0,1.969596293e0,4.533922070e0
1.350755250e0,3.603630236e0,1.021037874e0,1.946122354e0,4.220907655e0
1.360807250e0,2.950906137e0,-3.921329927e-1,1.443326127e0,3.308293461e0
1.370859250e0,1.120717698e0,-1.010322851e0,1.312433866e0,1.999810759e0
1.380911250e0,-8.348514175e-1,-8.194042432e-1,1.506894132e0,1.907650421e0
1.390964250e0,-2.076459129e0,-1.172350366e0,1.051489588e0,2.606092525e0
1.401016250e0,-1.378588094e0,-1.078235922e0,-1.464905861e-1,1.756290787e0
1.411068250e0,-2.937056422e-3,-1.139496031e0,-7.275140798e-1,1.351938078e0
1.421120250e0,8.843276328e-1,-9.165913993e-1,7.551412967e-1,1.480680091e0
1.431173250e0,9.254657185e-1,-1.179865208e0,3.045225234e0,3.394402073e0
1.441225250e0,1.355029662e0,-1.027682649e0,4.658587223e0,4.959301556e0
1.451277250e0,1.923059181e0,-5.617174494e-1,5.165689924e0,5.540580790e0
1.461329250e0,2.503146243e0,-2.360287070e-1,5.153187407e0,5.733828661e0
1.471382250e0,3.101560233e0,4.776298106e-2,5.053463144e0,5.929540196e0
1.481434250e0,3.625674824e0,4.450257361e-1,4.897499192e0,6.109751563e0
1.491486250e0,4.011091120e0,1.575694225e0,3.992385584e0,5.874589936e0
1.501538250e0,3.911566247e0,2.391345141e0,1.248311837e0,4.751543384e0
1.511591250e0,3.667920372e0,2.960541179e0,-3.984816071e0,6.172293176e0
1.521643250e0,2.247759744e0,2.888826249e0,-1.009514766e1,1.073823762e1
1.531695250e0,-1.249526596e-1,1.570722338e0,-1.390336554e1,1.399236774e1
1.541747250e0,-2.142558102e0,-1.603669059e-1,-1.488300220e1,1.503728790e1
1.551800250e0,-2.621055347e0,-1.705617603e0,-1.448447937e1,1.481820519e1
1.561852250e0,-1.909064455e0,-1.679011602e0,-9.333539048e0,9.673601098e0
1.571904250e0,-2.340282576e0,-1.575588391e0,-3.211157227e0,4.274451082e0
1.581956250e0,-4.103379771e0,-3.008237502e0,1.758316219e0,5.383204839e0
1.592009250e0,-4.494343613e0,-3.949357386e0,3.701859073e0,7.035645590e0
1.602061250e0,-3.392482016e0,-4.586706816e0,4.145015162e0,7.051805750e0
1.612113250e0,-3.472497654e-1,-3.757312020e0,2.360551072e0,4.450862543e0
1.622165250e0,3.234376813e0,-1.389186172e0,1.997781627e0,4.047488483e0
1.632218250e0,5.116444674e0,1.401028538e0,1.402678330e0,5.487111586e0
1.642270250e0,4.929668818e0,3.305501175e0,1.652122012e-1,5.937614651e0
1.652322250e0,4.120947438e0,3.062062876e0,7.622137964e-1,5.190318556e0
1.662375250e0,2.697479625e0,1.747245101e0,1.514042645e0,3.552687279e0
1.672427250e0,2.034425835e0,1.450210054e0,2.950366732e0,3.866091247e0
1.682479250e0,2.233178835e0,2.031398147e0,4.647322562e0,5.541775269e0
1.692531250e0,2.026054669e0,2.399825943e0,6.683318374e0,7.384497719e0
1.702584250e0,1.764498772e0,2.790839778e0,6.464205662e0,7.258663612e0
1.712636250e0,1.636029013e0,3.468516870e0,5.613863801e0,6.798725394e0
1.722688250e0,1.524130262e0,4.250612369e0,5.082554212e0,6.798752524e0
1.732740250e0,1.687295645e0,4.749800863e0,5.813683040e0,7.694575058e0
1.742792250e0,1.395744410e0,4.030792143e0,6.221387168e0,7.543278204e0
1.752845250e0,1.380114510e0,2.341347939e0,6.088993342e0,6.668018157e0
1.762897250e0,2.301595058e0,-4.875537050e0,5.763933175e0,7.892472805e0
1.772949250e0,5.051889074e0,-1.426595255e1,6.811182362e0,1.659611974e1
1.783002250e0,4.597192628e0,-2.438043344e1,8.093456290e0,2.609681493e1
1.793054250e0,2.895680940e0,-2.494363959e1,9.254927326e0,2.676235797e1
1.803106250e0,1.000236477e0,-1.649225652e1,9.063314070e0,1.884512298e1
1.813158250e0,2.354452280e-1,-7.197017904e0,6.947101475e0,1.000573436e1
1.823211250e0,4.279721124e-1,-2.083005672e0,5.037869790e0,5.468290846e0
1.833263250e0,5.473342491e-1,8.426410782e-1,3.411034647e0,3.555949399e0
1.843315250e0,5.962970423e-1,2.591395930e0,1.717657020e0,3.165635587e0
1.853367250e0,-7.873685181e-2,4.386156675e0,-3.559719400e0,5.649439979e0
1.863420250e0,-8.302038313e-1,5.848404976e0,-7.193210197e0,9.307811349e0
1.873472250e0,2.147951281e-1,5.497033508e0,-7.516081166e0,9.314235902e0
1.883524250e0,1.393681804e0,3.724427279e0,-6.696056533e0,7.787867528e0
1.893576250e0,1.847545314e0,1.915266012e0,-5.164377809e0,5.809687232e0
1.903629250e0,1.493129202e0,6.181612068e-1,-3.786638145e0,4.117060424e0
1.913681250e0,9.834979451e-1,-3.359459281e-2,-2.454547695e0,2.644466145e0
1.923733250e0,8.137019654e-1,4.985581648e-1,-1.294451192e0,1.608189983e0
1.933785250e0,8.358463213e-1,8.366552836e-1,-5.059472913e-1,1.286317923e0
1.943838250e0,9.731732241e-1,1.463446981e-1,-2.302623291e-1,1.010694630e0
1.953890250e0,1.033871635e0,-6.735167974e-1,-2.199004052e-1,1.253344175e0
1.963942250e0,8.186606967e-1,-4.245897174e-1,-1.196677999e-1,9.299473892e-1
1.973994250e0,3.527753842e-1,4.881945598e-1,8.741587400e-3,6.023792952e-1
1.984047250e0,7.921511751e-2,1.236686695e0,1.735133471e-1,1.251309673e0
1.994099250e0,6.635829628e-2,1.412387339e0,4.697892791e-1,1.489947444e0
2.004151250e0,3.055901080e-2,1.260067372e0,7.308171719e-1,1.456982283e0
2.014203250e0,-2.717423125e-1,1.143687900e0,7.104201834e-1,1.373522018e0
2.024256250e0,-7.899287215e-1,8.905841535e-1,3.590914004e-1,1.243412302e0
2.034308250e0,-1.442722694e0,4.299258864e-1,-2.295979393e-1,1.522826403e0
2.044360250e0,-2.094646017e0,-7.219557166e-3,-1.071152166e0,2.352649787e0
2.054412250e0,-2.814697295e0,-2.616956449e-1,-2.239190649e0,3.606241844e0
2.064465250e0,-3.774225676e0,-8.937165070e-1,-3.541772834e0,5.252395973e0
2.074517250e0,-4.707600338e0,-1.429762341e0,-4.917330608e0,6.955994653e0
2.084569250e0,-5.347448283e0,-1.701386558e0,-5.665707554e0,7.974343951e0
2.094621250e0,-5.550684051e0,-2.195739405e0,-5.274874982e0,7.965906793e0
2.104674250e0,-5.208153573e0,-2.075858036e0,-4.382459773e0,7.116179023e0
2.114726250e0,-4.514571178e0,-1.729329232e0,-3.482331501e0,5.958067237e0
2.124778250e0,-3.827787341e0,-1.592868667e0,-2.909745247e0,5.065155864e0
2.134830250e0,-3.232619725e0,-1.460490628e0,-2.400853006e0,4.283334953e0
2.144883250e0,-2.862497698e0,-1.533154562e0,-2.126622539e0,3.881620719e0
2.154935250e0,-2.492313984e0,-1.893681015e0,-1.980822801e0,3.704229441e0
2.164987250e0,-2.230454909e0,-2.433614078e0,-1.985220492e0,3.852078268e0
2.175039250e0,-2.014243585e0,-3.005616195e0,-2.369579758e0,4.325021868e0
2.185092250e0,-1.861816614e0,-3.487470034e0,-3.258271168e0,5.123001010e0
2.195144250e0,-2.070999877e0,-3.748307893e0,-4.763062348e0,6.405124158e0
2.205196250e0,-2.863125689e0,-3.798577575e0,-6.137775493e0,7.765241033e0
2.215248250e0,-3.545591358e0,-3.871796994e0,-6.766942329e0,8.564668033e0
2.225301250e0,-3.581921863e0,-3.617357744e0,-6.956067595e0,8.619879215e0
2.235353250e0,-3.031846512e0,-2.867671607e0,-6.449654281e0,7.682035802e0
2.245405250e0,-2.317941242e0,-1.884890896e0,-5.463391553e0,6.226902324e0
2.255457250e0,-2.106506801e0,-1.412744020e0,-4.514207481e0,5.177961544e0
2.265510250e0,-1.732262195e0,-1.810194470e0,-2.330276236e0,3.421655107e0
2.275562250e0,-1.033474901e0,-2.555453095e0,1.153614718e0,2.988183028e0
2.285614250e0,-3.630775934e-1,-3.044831716e0,3.732805170e0,4.830803241e0
2.295666250e0,1.569796504e-1,-3.481886528e0,5.059158332e0,6.143554300e0
2.305719250e0,6.274360603e-1,-4.324885456e0,5.713586894e0,7.193287525e0
2.315771250e0,1.308271233e0,-4.885802422e0,5.918207867e0,7.785102651e0
2.325823250e0,1.934284081e0,-5.006529883e0,5.767214048e0,7.878296405e0
2.335875250e0,2.063056726e0,-4.951859586e0,5.412856407e0,7.620769705e0
2.345928250e0,1.821999999e0,-4.772176988e0,5.761165688e0,7.699635529e0
2.355980250e0,1.741031411e0,-4.259364481e0,6.050927968e0,7.601783043e0
2.366032250e0,1.796913397e0,-4.204728098e0,-1.322762972e0,4.760077522e0
2.376084250e0,2.140247428e0,-3.929869786e0,-5.033114834e0,6.734744280e0
2.386137250e0,2.422016418e0,-2.423346367e0,-2.572700043e0,4.284571934e0
2.396189250e0,2.777631210e0,-9.882361633e-1,2.862647679e-1,2.962058975e0
2.406241250e0,2.835793757e0,1.546395582e-1,2.721043904e0,3.933156436e0
2.416293250e0,1.474430098e0,1.066375430e0,3.723970027e0,4.144762168e0
2.426346250e0,-5.256798899e-1,1.620240068e0,4.300853984e0,4.625890425e0
2.436398250e0,-1.939871388e0,1.574782645e0,4.624866915e0,5.256656291e0
2.446450250e0,-2.182756101e0,1.309707309e0,4.690175343e0,5.336431597e0
2.456502250e0,-1.780324992e0,1.396270659e0,4.206096639e0,4.776021123e0
2.466555250e0,-1.457709254e0,1.623924984e0,4.042961661e0,4.594299469e0
2.476607250e0,-1.243072001e0,1.944851169e0,4.249001168e0,4.835461198e0
2.486659250e0,-4.267053862e-1,2.578128013e0,4.469257596e0,5.177169593e0
2.496711250e0,5.634479329e-1,3.649001706e0,4.989294630e0,6.206911303e0
2.506764250e0,9.353969219e-1,4.781640122e0,5.681176363e0,7.484304545e0
2.516816250e0,9.611132687e-1,5.857117327e0,6.228674553e0,8.603833378e0
2.526868250e0,1.167118570e0,6.782241569e0,6.424050493e0,9.414318413e0
2.536920250e0,1.403527492e0,7.355444704e0,6.569809300e0,9.961669060e0
2.546973250e0,2.085041673e0,7.600253005e0,6.481667202e0,1.020408027e1
2.557025250e0,2.909726829e0,7.637450652e0,6.226877704e0,1.027478314e1
2.567077250e0,3.567568118e0,7.588172657e0,5.954473468e0,1.028414609e1
2.577129250e0,4.224357201e0,7.706866457e0,5.244463028e0,1.023451889e1
2.587182250e0,4.236042861e0,7.733176589e0,4.396105712e0,9.852503474e0
2.597234250e0,4.070009419e0,7.418198776e0,3.448001036e0,9.136922945e0
2.607286250e0,3.104196158e0,6.506645923e0,2.181706380e0,7.532085878e0
2.617338250e0,2.012555640e0,4.956436202e0,-4.771026841e-1,5.370685897e0
2.627391250e0,1.362843881e0,2.909938205e0,-5.093834660e0,6.022643551e0
2.637443250e0,1.516400535e0,-2.076428139e-1,-1.059258316e1,1.070258866e1
2.647495250e0,3.631867025e0,-6.040264986e0,-1.565459025e1,1.716803586e1
2.657547250e0,4.908414189e0,-1.442493250e1,-1.421095130e1,2.083560280e1
2.667600250e0,1.163207367e0,-2.138576557e1,-1.137268943e1,2.424957908e1
2.677652250e0,-3.937052506e0,-2.105234564e1,-9.220047516e0,2.331760956e1
2.687704250e0,-5.584906050e0,-1.232374958e1,-4.894583185e0,1.438829121e1
2.697756250e0,-4.420186885e0,-5.352599680e0,-6.926632127e-1,6.976256716e0
2.707809250e0,-2.347984967e0,-1.670893328e0,7.308730128e-1,2.973061264e0
2.717861250e0,-3.183892246e-1,1.344622203e0,-9.850833446e-2,1.385310239e0
2.727913250e0,1.216261348e0,3.810380180e0,-1.858455342e0,4.410458597e0
2.737965250e0,2.154018644e0,6.039621207e0,-1.746498704e0,6.645831654e0
2.748018250e0,2.420900623e0,8.623283610e0,9.382749215e-1,9.005672650e0
2.758070250e0,2.542002453e0,1.107310851e1,4.055617082e0,1.206331374e1
2.768122250e0,3.126875169e0,1.136028983e1,7.084684120e0,1.374868293e1
2.778174250e0,4.334906122e0,9.452081405e0,8.576435718e0,1.347918779e1
2.788227250e0,5.983565705e0,6.411666675e0,8.103849131e0,1.194089188e1
2.798279250e0,7.751076670e0,1.142013842e0,7.947510957e0,1.116003206e1
2.808331250e0,9.843178271e0,-8.173697630e0,6.395597942e0,1.430388634e1
2.818383250e0,8.869606340e0,-1.547701967e1,5.907728487e0,1.879120300e1
2.828436250e0,4.435299306e0,-1.973664727e1,3.479343574e0,2.052590941e1
2.838488250e0,-2.811397419e0,-1.889618487e1,1.655237993e0,1.917575477e1
2.848540250e0,-7.002792111e0,-1.153060285e1,2.578539072e0,1.373472836e1
2.858592250e0,-5.729021789e0,-2.791820941e0,4.952151362e0,8.070920514e0
2.868645250e0,-3.141531799e0,2.267332129e0,7.804921925e0,8.713599904e0
2.878697250e0,-1.505065708e0,4.465734356e0,8.937006025e0,1.010336987e1
2.888749250e0,4.215646604e-1,5.223247576e0,8.356099184e0,9.863286753e0
2.898801250e0,1.557452959e0,4.995821877e0,6.953027043e0,8.702211271e0
2.908853333e0,1.684160076e0,3.924846443e0,4.489475806e0,6.196467362e0
2.918905333e0,1.287494029e0,2.288137107e0,2.586339258e0,3.685425763e0
2.928957333e0,8.092771581e-1,3.626969397e-1,1.249666929e0,1.532366152e0
2.939009333e0,3.854069406e-1,-1.490626009e0,4.189752209e-1,1.595632991e0
2.949062333e0,3.659895068e-1,-2.672460558e0,-5.015531087e-1,2.743637964e0
2.959114333e0,8.195480847e-1,-2.577384832e0,-1.802679044e0,3.250265123e0
2.969166333e0,1.032444330e0,-1.028784265e0,-2.237424206e0,2.670281901e0
2.979218333e0,6.031622216e-1,5.186328256e-1,-1.612608283e0,1.798135186e0
2.989271333e0,-1.291895521e-1,1.740457653e0,-5.993845914e-1,1.845303409e0
2.999323333e0,-9.837352690e-1,2.287392172e0,3.242480616e-1,2.510982842e0
3.009375333e0,-1.733717567e0,2.074117320e0,7.703192067e-1,2.810895042e0
3.019427333e0,-2.213894717e0,1.788030599e0,6.715328372e-1,2.923925374e0
3.029480333e0,-2.282575235e0,1.720682954e0,-8.853159584e-2,2.859849188e0
3.039532333e0,-2.129200722e0,1.653634686e0,-1.052286564e0,2.894012855e0
3.049584333e0,-2.299348851e0,1.647352438e0,-2.057111424e0,3.497496619e0
3.059636333e0,-2.639449810e0,1.427387787e0,-3.224599099e0,4.404789500e0
3.069689333e0,-2.495496038e0,6.479065776e-1,-3.939127682e0,4.707866853e0
3.079741333e0,-1.124645857e0,1.620883262e-1,-3.845497388e0,4.009856742e0
3.089793333e0,7.299406743e-1,4.138325948e-1,-3.203183087e0,3.311261496e0
3.099845333e0,1.918317381e0,8.214168549e-1,-2.315607326e0,3.117162895e0
3.109898333e0,2.162970147e0,1.132888677e0,-1.504382168e0,2.867933458e0
3.119950333e0,1.760054888e0,1.284689997e0,-8.541834819e-1,2.340480938e0
3.130002333e0,1.034430336e0,1.378564121e0,-3.392284088e-1,1.756576519e0
3.140054333e0,1.535189028e-1,1.454584356e0,1.370106415e-1,1.469066240e0
3.150107333e0,-5.819134399e-1,1.374310856e0,5.381625259e-1,1.586496922e0
3.160159333e0,-1.188349591e0,1.086020905e0,6.201836126e-1,1.725179373e0
3.170211333e0,-1.940831793e0,6.779881632e-1,2.599926433e-1,2.072219142e0
3.180263333e0,-2.912044665e0,2.665535116e-1,-6.458281848e-1,2.994686787e0
3.190316333e0,-3.936845514e0,-2.778023851e-1,-1.961073099e0,4.407009697e0
3.200368333e0,-4.868042381e0,-1.115694355e0,-3.447838776e0,6.068789232e0
3.210420333e0,-5.806838289e0,-1.931402573e0,-4.761567215e0,7.753851247e0
3.220472333e0,-6.520011488e0,-2.494789987e0,-5.591735598e0,8.944385607e0
3.230525333e0,-6.598924341e0,-2.510019060e0,-5.703356021e0,9.076027107e0
3.240577333e0,-5.792688612e0,-2.017017505e0,-5.253786414e0,8.076253627e0
3.250629333e0,-4.690390229e0,-1.684320289e0,-4.495861550e0,6.711889928e0
3.260681333e0,-3.819742157e0,-1.874194000e0,-3.772479990e0,5.686355473e0
3.270734333e0,-3.001847080e0,-2.432650457e0,-3.250910108e0,5.049484198e0
3.280786333e0,-2.108775229e0,-3.201398517e0,-2.881098568e0,4.795478536e0
3.290838333e0,-1.078444083e0,-3.925852749e0,-2.635673386e0,4.849962437e0
3.300890333e0,1.536844155e-1,-4.432243259e0,-2.785893034e0,5.237327487e0
3.310943333e0,6.949901122e-1,-4.739798616e0,-3.952338881e0,6.210449647e0
3.320995333e0,3.549914789e-1,-4.828001525e0,-6.044345173e0,7.744012283e0
3.331047333e0,-8.123393449e-1,-4.825935119e0,-7.476371555e0,8.935640806e0
3.341099333e0,-2.153899654e0,-4.547639814e0,-7.659486469e0,9.164499144e0
3.351152333e0,-2.870461314e0,-3.862469516e0,-6.543038993e0,8.122165855e0
3.361204333e0,-3.390802403e0,-3.053264571e0,-4.724846116e0,6.568419620e0
3.371256333e0,-3.775583400e0,-2.349518838e0,-3.378740475e0,5.584904294e0
3.381308333e0,-3.855391461e0,-2.309339111e0,-1.707395010e0,4.807524121e0
3.391361333e0,-3.487030616e0,-2.909706656e0,1.040165870e0,4.659154470e0
3.401413333e0,-2.572431656e0,-3.531962083e0,3.276434666e0,5.461427002e0
3.411465333e0,-1.390185169e0,-3.869295555e0,4.575260891e0,6.151184855e0
3.421517333e0,-5.316794255e-1,-4.199479052e0,5.262632082e0,6.753784402e0
3.431570333e0,3.277522248e-1,-4.594944373e0,5.534666773e0,7.200935467e0
3.441622333e0,1.439061168e0,-4.798082492e0,5.657322646e0,7.556308105e0
3.451674333e0,1.988024963e0,-4.973642803e0,4.998726189e0,7.326433614e0
3.461726333e0,2.155964598e0,-4.782169295e0,3.798737204e0,6.476706791e0
3.471779333e0,2.675826216e0,-4.936593676e0,5.940162992e0,8.174077283e0
3.481831333e0,3.234841082e0,-5.168472029e0,2.884361315e0,6.745134553e0
3.491883333e0,3.687107133e0,-4.884707823e0,-4.067191061e0,7.348276849e0
3.501935333e0,2.943923100e0,-3.105674919e0,-3.898311778e0,5.788672960e0
3.511988333e0,2.943641264e0,-1.486820641e0,-2.227033557e0,3.979364016e0
3.522040333e0,2.965627672e0,-2.664207798e-1,9.399248596e-1,3.122400721e0
3.532092333e0,1.738300030e0,7.176767242e-1,3.424279175e0,3.906716619e0
3.542144333e0,-4.706359559e-1,1.308055471e0,4.659502312e0,4.862455050e0
3.552197333e0,-1.644281773e0,1.478650911e0,5.536608049e0,5.961887264e0
3.562249333e0,-1.620533599e0,1.364809715e0,5.408400829e0,5.808582807e0
3.572301333e0,-1.195878977e0,1.613522787e0,4.877405820e0,5.274719883e0
3.582353333e0,-7.948023757e-1,1.904106016e0,4.745969768e0,5.175090296e0
3.592406333e0,-5.776021416e-1,2.131427050e0,4.669037074e0,5.164931045e0
3.602458333e0,-5.245931118e-1,2.278116733e0,4.917576191e0,5.444958162e0
3.612510333e0,7.742678314e-2,2.888288305e0,5.426938841e0,6.148159841e0
3.622562333e0,7.558643780e-1,3.872409198e0,6.073218724e0,7.242297261e0
3.632615333e0,1.006764382e0,4.884182158e0,6.746432635e0,8.389467395e0
3.642667333e0,1.061993672e0,5.865605146e0,7.258031260e0,9.392133520e0
3.652719333e0,1.388735352e0,6.675273190e0,7.392259943e0,1.005650859e1
3.662771333e0,2.055687773e0,7.322942955e0,7.198766806e0,1.047251590e1
3.672824333e0,2.979148189e0,7.652575645e0,6.781379689e0,1.065008678e1
3.682876333e0,3.815111454e0,7.829046367e0,6.344454685e0,1.077502425e1
3.692928333e0,4.071923797e0,7.973486627e0,5.875793919e0,1.070896851e1
3.702980333e0,3.693088250e0,8.113221048e0,5.257437415e0,1.034910164e1
3.713033333e0,3.414821011e0,8.204698398e0,4.315657088e0,9.879421767e0
3.723085333e0,3.136686797e0,8.062036276e0,3.138507327e0,9.202470387e0
3.733137333e0,2.651244521e0,7.323518906e0,1.150361619e0,7.873141593e0
3.743189333e0,2.279453115e0,5.803803000e0,-2.988549050e0,6.914583226e0
3.753242333e0,2.388027723e0,3.812896821e0,-8.367453307e0,9.500270176e0
3.763294333e0,3.970323747e0,6.492298025e-1,-1.302341922e1,1.363064262e1
3.773346333e0,5.699146026e0,-4.762827290e0,-1.360304435e1,1.549863236e1
3.783398333e0,4.398433489e0,-1.227444703e1,-1.276441914e1,1.824660689e1
3.793450333e0,-1.216116264e0,-1.915048028e1,-1.170517381e1,2.247734254e1
3.803503333e0,-5.268417901e0,-2.007344923e1,-6.971715914e0,2.189302204e1
3.813555333e0,-7.466379833e0,-1.395184480e1,-1.948205424e0,1.594353491e1
3.823607333e0,-6.737485226e0,-6.483554683e0,-2.489203557e-1,9.353723849e0
3.833660333e0,-3.259632107e0,-1.679923768e0,-6.525328946e-1,3.724667035e0
3.843712333e0,-8.741841023e-1,1.732508363e0,-1.882197376e0,2.703414514e0
3.853764333e0,6.414100286e-1,3.967604792e0,-2.309666555e0,4.635499348e0
3.863816333e0,1.599311276e0,6.177490366e0,-1.334501258e-1,6.382553777e0
3.873869333e0,2.060374901e0,8.558940849e0,3.942822830e0,9.646059561e0
3.883921333e0,3.533315421e0,9.075907803e0,7.739179341e0,1.243990825e1
3.893973333e0,5.310117320e0,7.134524617e0,8.062308172e0,1.200414930e1
3.904025333e0,7.834114149e0,3.122243589e0,5.348349924e0,9.986320466e0
3.914078250e0,9.209113807e0,-4.557057340e0,4.050240275e0,1.104441012e1
3.924131250e0,8.458088658e0,-9.053734576e0,5.853837039e0,1.370316685e1
3.934183250e0,6.106371267e0,-1.095890186e1,6.137184924e0,1.396604235e1
3.944235250e0,2.417086046e0,-1.011460368e1,4.993001765e0,1.153592559e1
3.954287250e0,-1.260658233e0,-7.746892987e0,4.193573949e0,8.898857938e0
3.964340250e0,-3.578846228e0,-5.130022493e0,4.878741324e0,7.932678489e0
3.974392250e0,-3.375359322e0,-2.011439846e0,6.542777038e0,7.631963848e0
3.984444250e0,-1.171074504e0,6.637367445e-1,8.504555311e0,8.610425251e0
3.994497250e0,1.012726130e0,1.886890059e0,9.707966087e0,9.941356741e0
4.004549250e0,2.275498350e0,2.197076663e0,8.886399543e0,9.432557206e0
4.014601250e0,2.295809823e0,1.890899495e0,6.653984063e0,7.288466749e0
4.024653250e0,1.556922324e0,9.490557253e-1,4.546990188e0,4.898962509e0
4.034706250e0,4.924951504e-1,-5.347331339e-1,2.649534795e0,2.747458030e0
4.044758250e0,-5.548995960e-1,-1.808430950e0,1.380338166e0,2.341723620e0
4.054810250e0,-1.484988123e0,-2.603908972e0,2.953896403e-1,3.012106688e0
4.064862250e0,-2.171239864e0,-2.265728238e0,-1.260495388e0,3.381812475e0
4.074914250e0,-2.572828097e0,-6.349772143e-1,-2.510257042e0,3.650209706e0
4.084967250e0,-2.680099653e0,9.272134513e-1,-2.677085706e0,3.899929078e0
4.095019250e0,-2.537326727e0,2.105656616e0,-1.628087032e0,3.677293038e0
4.105071250e0,-2.276114647e0,2.686662276e0,-3.644440877e-1,3.540010108e0
4.115123250e0,-1.844786306e0,2.538742923e0,-6.376271725e-2,3.138872062e0
4.125176250e0,-1.781276773e0,1.948156015e0,-6.431540338e-1,2.716966307e0
4.135228250e0,-2.012500238e0,1.425147133e0,-9.453871822e-1,2.641014670e0
4.145280250e0,-2.076017957e0,1.419720333e0,-1.114676355e0,2.750992504e0
4.155332250e0,-1.757822714e0,1.575097809e0,-1.231960391e0,2.662442527e0
4.165385250e0,-1.398446993e0,1.372718074e0,-1.087799774e0,2.241275809e0
4.175437250e0,-1.081788471e0,6.229202557e-1,-1.010158763e0,1.605838307e0
4.185489250e0,-7.097555012e-1,-5.567841536e-1,-1.448570056e0,1.706492506e0
4.195541250e0,1.240232447e-1,-1.013817147e0,-2.436994938e0,2.642376071e0
4.205594250e0,1.460110852e0,-4.703640604e-1,-3.384506414e0,3.715918421e0
4.215646250e0,2.623979539e0,2.079100317e-1,-3.601821692e0,4.461122583e0
4.225698250e0,2.988230961e0,7.445364940e-1,-3.150326596e0,4.405498443e0
4.235750250e0,2.601893436e0,1.170101527e0,-2.404086224e0,3.730766357e0
4.245803250e0,1.797029172e0,1.506836829e0,-1.470318629e0,2.767979036e0
4.255855250e0,8.458886218e-1,1.652799704e0,-4.289131486e-1,1.905581515e0
4.265907250e0,-2.670748640e-2,1.670265337e0,5.629803018e-1,1.762795055e0
4.275959250e0,-7.512929517e-1,1.543441569e0,1.373607436e0,2.198510942e0
4.286012250e0,-1.295584821e0,1.445553331e0,1.874181136e0,2.698280822e0
4.296064250e0,-1.821955852e0,1.477946906e0,2.009524152e0,3.089018857e0
4.306116250e0,-2.271608490e0,1.321435069e0,1.634039205e0,3.094588809e0
4.316168250e0,-2.829249261e0,8.320640498e-1,5.307248676e-1,2.996439695e0
4.326221250e0,-3.553034863e0,-1.105673397e-1,-1.398779699e0,3.820061063e0
4.336273250e0,-4.680766881e0,-1.291464581e0,-3.836080154e0,6.188131407e0
4.346325250e0,-5.588226099e0,-2.141379011e0,-6.145410787e0,8.577869709e0
4.356377250e0,-5.710912378e0,-2.236169978e0,-7.340393386e0,9.565372518e0
4.366430250e0,-5.452078360e0,-1.927092590e0,-7.097863744e0,9.155245165e0
4.376482250e0,-5.100719756e0,-1.758179394e0,-5.812248133e0,7.930369801e0
4.386534250e0,-4.584178480e0,-1.862731703e0,-4.355751738e0,6.592195001e0
4.396586250e0,-4.190686010e0,-2.239492366e0,-3.131481313e0,5.690637091e0
4.406639250e0,-4.013013684e0,-2.778565303e0,-2.426279916e0,5.450829130e0
4.416691250e0,-3.904770028e0,-3.345975602e0,-1.955438869e0,5.501501874e0
4.426743250e0,-3.782913469e0,-3.745366158e0,-1.734662185e0,5.598861926e0
4.436795250e0,-3.604185721e0,-3.934797235e0,-2.378241823e0,5.841987518e0
4.446848250e0,-3.085237146e0,-3.981175595e0,-3.757224312e0,6.283723569e0
4.456900250e0,-2.282538544e0,-3.750536267e0,-5.895843437e0,7.351018591e0
4.466952250e0,-1.161577602e0,-3.287635008e0,-7.613957709e0,8.374375109e0
4.477004250e0,-4.413069069e-1,-3.092977105e0,-7.686832727e0,8.297509056e0
4.487057250e0,-9.489443359e-1,-3.107961765e0,-6.088147250e0,6.901120099e0
4.497109250e0,-1.930271137e0,-2.999713431e0,-3.622277591e0,5.083809819e0
4.507161250e0,-2.893822694e0,-2.986779390e0,-1.712839645e0,4.497652784e0
4.517213250e0,-3.467327546e0,-3.606411756e0,-1.074045807e0,5.116848685e0
4.527266250e0,-3.704137441e0,-5.099360279e0,-1.531746845e-1,6.304567544e0
4.537318250e0,-3.190131809e0,-6.435434437e0,1.802502458e0,7.405455588e0
4.547370250e0,-1.680572517e0,-6.590567501e0,3.502327225e0,7.650241823e0
4.557422250e0,1.868755504e-1,-6.301365384e0,4.608836188e0,7.809193248e0
4.567475250e0,1.417975231e0,-6.246635445e0,5.071451519e0,8.170111912e0
4.577527250e0,2.300017772e0,-6.271068036e0,4.858629241e0,8.259700610e0
4.587579250e0,3.099309932e0,-6.176249002e0,4.024606959e0,7.996826556e0
4.597631250e0,3.865807691e0,-6.030415936e0,2.978357645e0,7.757641376e0
4.607684250e0,4.917118939e0,-5.769469904e0,1.950137637e0,7.827380049e0
4.617736250e0,6.597961890e0,-5.738576725e0,2.079232464e0,8.988190672e0
4.627788250e0,5.475312856e0,-4.569301994e0,1.575388416e0,7.303384164e0
4.637840250e0,3.278808635e0,-2.012338563e0,-3.514794950e-1,3.863111491e0
4.647893250e0,2.849748722e0,-6.016866767e-1,-2.408113932e0,3.779167546e0
4.657945250e0,2.168351632e0,3.866740322e-1,-1.995481625e0,2.972072092e0
4.667997250e0,1.131883906e0,1.179596820e0,2.298214491e-1,1.650886954e0
4.678049250e0,-2.155005947e-1,1.894390283e0,2.779302052e0,3.370411688e0
4.688102250e0,-2.129472618e0,2.465096072e0,5.263221481e0,6.189737687e0
4.698154250e0,-3.018788510e0,2.383978234e0,6.629858451e0,7.664950056e0
4.708206250e0,-2.744017614e0,2.086561364e0,6.428770366e0,7.294687067e0
4.718258250e0,-1.843814791e0,1.915503994e0,5.737687363e0,6.323754012e0
4.728310250e0,-1.388699977e0,1.834742836e0,4.918950287e0,5.430547010e0
4.738363250e0,-8.028200778e-1,1.526744260e0,4.802947376e0,5.103309868e0
4.748415250e0,-6.975991398e-2,1.593199620e0,5.182104228e0,5.421932838e0
4.758467250e0,5.899191552e-1,2.112878512e0,5.841046840e0,6.239398080e0
4.768519250e0,1.098187645e0,2.838194039e0,6.497758155e0,7.175111326e0
4.778572250e0,1.236529113e0,3.845023763e0,6.877079898e0,7.975427256e0
4.788624250e0,1.480327454e0,4.800591533e0,7.043701571e0,8.651634542e0
4.798676250e0,2.020339893e0,5.453465905e0,7.249659802e0,9.294064283e0
4.808728250e0,3.188903309e0,5.964997872e0,7.146636540e0,9.839955170e0
4.818781250e0,4.223140103e0,6.432216715e0,6.860294296e0,1.030882932e1
4.828833250e0,5.017196959e0,6.941030896e0,6.338520346e0,1.065490570e1
4.838885250e0,5.267021002e0,7.528257408e0,5.835173312e0,1.088418198e1
4.848937250e0,4.829344923e0,8.078495604e0,5.276926185e0,1.079030183e1
4.858990250e0,3.996290647e0,8.330777816e0,4.635094864e0,1.033713221e1
4.869042250e0,3.119323782e0,8.307072619e0,3.959773616e0,9.716863869e0
4.879094250e0,2.710022195e0,8.119451256e0,3.018112280e0,9.076271852e0
4.889146250e0,2.736862376e0,7.597351617e0,1.488880322e0,8.211390374e0
4.899199250e0,2.858159649e0,6.667265428e0,-2.142878529e0,7.563956191e0
4.909250833e0,2.908600947e0,5.035360165e0,-7.594743758e0,9.565298961e0
4.919302833e0,3.619059868e0,2.256953321e0,-1.174478636e1,1.249525667e1
4.929354833e0,5.050740681e0,-2.596549081e0,-1.318092567e1,1.435231166e1
4.939407833e0,4.050145842e0,-1.027499398e1,-1.376602029e1,1.764886674e1
4.949459833e0,-1.770143090e0,-1.883539488e1,-1.324693138e1,2.309516611e1
4.959511833e0,-6.193971328e0,-2.281816501e1,-8.352693765e0,2.507591331e1
4.969563833e0,-8.752026435e0,-1.891415219e1,-2.090084604e0,2.094544279e1
4.979616833e0,-8.190610117e0,-9.540687187e0,-6.556775272e-2,1.257438290e1
4.989668833e0,-3.970634235e0,-2.916550237e0,-8.639304981e-1,5.001857396e0
4.999720833e0,-1.128616628e0,1.314709602e0,-1.137809401e0,2.072883756e0
5.009772833e0,6.187682940e-1,4.616634035e0,-1.727595825e0,4.967974572e0
5.019825833e0,2.213140134e0,7.358112203e0,-1.800574046e0,7.891886425e0
5.029877833e0,3.205727795e0,9.859713027e0,-5.129499167e-2,1.036789578e1
5.039929833e0,4.102856445e0,1.085827947e1,3.850056169e0,1.222941521e1
5.049981833e0,5.963796269e0,8.939372393e0,6.940888808e0,1.279277852e1
5.060034833e0,7.883909622e0,5.604224666e0,7.514462657e0,1.224869438e1
5.070086833e0,9.649236653e0,-8.423060328e-1,6.428692013e0,1.162520230e1
5.080138833e0,9.869059217e0,-7.808886337e0,6.685283039e0,1.425026473e1
5.090190833e0,7.619197399e0,-1.202885462e1,7.352110037e0,1.602495037e1
5.100243833e0,3.827069010e0,-1.258267716e1,4.837600315e0,1.401330077e1
5.110295833e0,-1.267031113e0,-1.063098650e1,3.141383865e0,1.115757744e1
5.120347833e0,-5.235538423e0,-7.933892791e0,3.645847718e0,1.018085080e1
5.130399833e0,-5.746662254e0,-3.694481934e0,6.001586823e0,9.093534419e0
5.140452833e0,-2.930415739e0,1.635355121e-1,8.326440936e0,8.828572871e0
5.150504833e0,-8.060617011e-2,1.995330766e0,9.826843489e0,1.002769640e1
5.160556833e0,1.656926084e0,2.538710763e0,9.245089971e0,9.729447310e0
5.170608833e0,2.169663162e0,2.337428550e0,7.420432413e0,8.076746106e0
5.180661833e0,2.125497388e0,1.458458721e0,5.549419298e0,6.118896595e0
5.190713833e0,1.148774685e0,-1.113298166e-1,3.492766442e0,3.678518047e0
5.200765833e0,2.970005482e-2,-1.864802787e0,1.637463627e0,2.481865963e0
5.210817833e0,-9.803514122e-1,-3.253414178e0,8.548559117e-1,3.503793849e0
5.220869833e0,-1.615806417e0,-3.643897086e0,-2.429635048e-2,3.986151862e0
5.230922833e0,-2.090312645e0,-2.307411869e0,-1.191371359e0,3.333604986e0
5.240974833e0,-2.611293420e0,-3.789802659e-1,-1.974215301e0,3.295452234e0
5.251026833e0,-2.987844753e0,1.357660909e0,-1.425009724e0,3.577864185e0
5.261078833e0,-2.842523317e0,2.717665383e0,-4.294505078e-1,3.956017149e0
5.271131833e0,-2.409749837e0,2.958717433e0,-2.061336476e-1,3.821438761e0
5.281183833e0,-2.151992292e0,2.352892681e0,-4.487099936e-1,3.220017927e0
5.291235833e0,-2.065616345e0,2.097783340e0,-5.906108809e-1,3.002713280e0
5.301287833e0,-1.855580558e0,2.224846845e0,-7.387981097e-1,2.989806906e0
5.311340833e0,-1.627588557e0,2.470249808e0,-1.095811629e0,3.154676172e0
5.321392833e0,-1.287533498e0,2.404237667e0,-1.579267605e0,3.151537313e0
5.331444833e0,-9.043304459e-1,1.783987250e0,-1.737124448e0,2.649155603e0
5.341496833e0,-2.069920554e-1,4.574738735e-1,-1.589480352e0,1.666906070e0
5.351549833e0,8.208631235e-1,-5.300430822e-1,-1.764632381e0,2.017099248e0
5.361601833e0,1.860297507e0,-3.996969509e-1,-2.542613779e0,3.175743897e0
5.371653833e0,2.750033814e0,1.447127402e-1,-3.385410978e0,4.364015954e0
5.381705833e0,3.536023267e0,8.820355242e-1,-3.549770363e0,5.087466642e0
5.391758833e0,3.635303434e0,1.453617811e0,-3.085005596e0,4.984545649e0
5.401810833e0,2.739264413e0,1.761555576e0,-2.415666050e0,4.054884713e0
5.411862833e0,1.388398553e0,1.749533701e0,-1.706545556e0,2.810839100e0
5.421914833e0,5.305522285e-2,1.420691555e0,-9.552439798e-1,1.712796080e0
5.431967833e0,-1.017143993e0,1.118483477e0,-7.090231374e-2,1.513477561e0
5.442019833e0,-1.794054693e0,7.597755075e-1,7.200249660e-1,2.077095813e0
5.452071833e0,-2.502677881e0,4.270701063e-1,1.325929239e0,2.864240528e0
5.462123833e0,-2.968682550e0,2.011874878e-1,1.404224626e0,3.290197454e0
5.472176833e0,-3.412389446e0,-5.915569603e-2,7.891679987e-1,3.502954076e0
5.482228833e0,-4.045892870e0,-6.491982275e-1,-3.839517148e-1,4.115595507e0
5.492280833e0,-4.897493929e0,-1.381757285e0,-2.242732454e0,5.560984521e0
5.502332833e0,-5.755013248e0,-2.059247850e0,-4.151573399e0,7.388926910e0
5.512385833e0,-6.385468810e0,-2.261192552e0,-5.390092027e0,8.656806325e0
5.522437833e0,-6.461296088e0,-2.012946088e0,-5.956022395e0,9.015237205e0
5.532489833e0,-6.014062443e0,-1.767356014e0,-5.828615659e0,8.559512536e0
5.542541833e0,-5.256045778e0,-1.934027388e0,-5.251197267e0,7.677340157e0
5.552594833e0,-4.586423226e0,-2.571590826e0,-4.307676223e0,6.797384190e0
5.562646833e0,-3.971965061e0,-3.277946171e0,-3.376118291e0,6.157890244e0
5.572698833e0,-3.400113510e0,-3.795864467e0,-2.692406580e0,5.763541630e0
5.582750833e0,-2.814159644e0,-4.178623788e0,-2.289110084e0,5.533571743e0
5.592803833e0,-2.234302816e0,-4.330485334e0,-2.445754360e0,5.452240520e0
5.602855833e0,-1.532478478e0,-4.329856759e0,-3.475960375e0,5.760073816e0
5.612907833e0,-6.751832539e-1,-4.289625576e0,-5.312504738e0,6.861447850e0
5.622959833e0,-3.453899123e-1,-4.166847496e0,-7.045341715e0,8.192603501e0
5.633011833e0,-7.894059804e-1,-4.039380534e0,-7.261291668e0,8.346622885e0
5.643064833e0,-1.915496685e0,-3.795658645e0,-5.640465124e0,7.063356066e0
5.653116833e0,-2.746231662e0,-3.368575090e0,-3.494044644e0,5.576507370e0
5.663168833e0,-3.417050262e0,-2.920397120e0,-2.093986305e0,4.958803331e0
5.673220833e0,-3.830973781e0,-3.040220602e0,-1.524706651e0,5.122892912e0
5.683273833e0,-3.623848738e0,-3.748818355e0,-6.714802853e-1,5.257071857e0
5.693325833e0,-2.612297679e0,-4.389372059e0,1.022734078e0,5.209287017e0
5.703377833e0,-8.191737898e-1,-4.261044971e0,2.577121707e0,5.046692604e0
5.713429833e0,7.559997410e-1,-4.320243351e0,3.519219246e0,5.623250157e0
5.723482833e0,1.816547178e0,-4.877375999e0,4.109356502e0,6.631398883e0
5.733534833e0,2.625980164e0,-5.161669378e0,4.286343534e0,7.204952705e0
5.743586833e0,3.307301825e0,-5.146341487e0,3.850162296e0,7.228196578e0
5.753638833e0,4.083543676e0,-5.074897867e0,3.149663522e0,7.235350553e0
5.763691833e0,5.428951453e0,-4.806901263e0,2.278971012e0,7.600889586e0
5.773743833e0,7.362001187e0,-4.800773966e0,1.930489823e0,8.998515605e0
5.783795833e0,6.867023857e0,-4.239783910e0,1.985284081e0,8.311025035e0
5.793847833e0,5.024955044e0,-2.060404429e0,5.119810331e-1,5.455049421e0
5.803900833e0,4.080816827e0,-2.084468061e-1,-1.887970040e0,4.501216160e0
5.813952833e0,2.969708736e0,8.200743341e-1,-2.139028430e0,3.750617885e0
5.824004833e0,1.120502813e0,1.221382778e0,-1.916670513e-1,1.668543886e0
5.834056833e0,-7.018231684e-1,1.618046778e0,2.309146153e0,2.905647448e0
5.844109833e0,-2.251576222e0,1.895839223e0,4.497905152e0,5.375402552e0
5.854161833e0,-3.552270925e0,1.866548181e0,5.758143847e0,7.018465031e0
5.864213833e0,-3.463087730e0,1.491637577e0,5.676792705e0,6.814978701e0
5.874265833e0,-3.056242558e0,1.093846818e0,5.096268271e0,6.042273556e0
5.884318833e0,-2.639707088e0,5.194888580e-1,4.516585836e0,5.257135132e0
5.894370833e0,-1.530506504e0,2.646894193e-1,4.269064135e0,4.542842638e0
5.904422833e0,-2.871596843e-2,9.311281621e-1,4.555350537e0,4.649628241e0
5.914475208e0,7.751238638e-1,1.780109376e0,5.505795561e0,5.838098248e0
5.924528208e0,1.081307537e0,2.678218312e0,6.543186343e0,7.152298010e0
5.934580208e0,1.356711614e0,3.753116058e0,7.060007701e0,8.109886268e0
5.944632208e0,1.463565972e0,4.829070396e0,7.304531828e0,8.877957618e0
5.954684208e0,1.712993281e0,5.927648782e0,7.420617769e0,9.650747854e0
5.964736208e0,2.164354475e0,6.930555024e0,7.236827502e0,1.025127775e1
5.974789208e0,3.172638987e0,7.592242904e0,6.924183898e0,1.075416724e1
5.984841208e0,4.158885927e0,8.123679963e0,6.372394436e0,1.113094422e1
5.994893208e0,4.304725718e0,8.670135595e0,5.872443464e0,1.132199218e1
6.004945208e0,3.917667232e0,9.090246345e0,5.183733262e0,1.117370958e1
6.014998208e0,3.615709122e0,9.375201044e0,4.362315822e0,1.095433916e1
6.025050208e0,3.073535698e0,9.335635275e0,3.529379660e0,1.044304690e1
6.035102208e0,2.818869283e0,8.837765912e0,2.089394925e0,9.508822298e0
6.045154208e0,2.619031918e0,7.765842644e0,-1.494157727e0,8.330675091e0
6.055207208e0,2.732949420e0,6.161874207e0,-7.029789290e0,9.739386210e0
6.065259208e0,3.563286494e0,3.657461457e0,-1.198562849e1,1.302802077e1
6.075311208e0,5.932628855e0,-1.180911859e0,-1.513645561e1,1.630039651e1
6.085363208e0,5.338916026e0,-9.628857937e0,-1.451898613e1,1.822141289e1
6.095416208e0,-1.040152422e0,-2.044706994e1,-1.352791114e1,2.453913132e1
6.105468208e0,-5.220418693e0,-2.541722196e1,-8.122804635e0,2.718948140e1
6.115520208e0,-6.730660940e0,-2.106413597e1,-3.102679975e0,2.232994052e1
6.125572208e0,-6.948219463e0,-1.075823595e1,-1.367309692e0,1.287971002e1
6.135625208e0,-3.585517024e0,-3.423998508e0,-1.733329897e0,5.252059657e0
6.145677208e0,-8.644171326e-1,7.143122363e-1,-2.508753138e0,2.747963111e0
6.155729208e0,5.112305430e-1,3.634560837e0,-2.491531334e0,4.436115140e0
6.165781208e0,1.956937802e0,6.073776548e0,-6.306166533e-1,6.412335337e0
6.175834208e0,3.207374371e0,8.308638504e0,2.995092669e0,9.396345259e0
6.185886208e0,4.350360020e0,8.965353327e0,6.518354387e0,1.190765033e1
6.195938208e0,5.566960360e0,7.592544621e0,7.864681054e0,1.226747690e1
6.205990208e0,7.217684303e0,4.950564428e0,6.898685360e0,1.114427721e1
6.216043208e0,9.000431358e0,-2.143121481e-2,5.782195199e0,1.069775702e1
6.226095208e0,9.314717445e0,-7.204528652e0,5.194331925e0,1.287051974e1
6.236147208e0,6.811192887e0,-9.796457849e0,5.172620044e0,1.300457354e1
6.246199208e0,2.880136994e0,-7.933553653e0,3.896025517e0,9.295992550e0
6.256251208e0,-1.340399929e0,-5.990256674e0,4.358226864e0,7.528212828e0
6.266304208e0,-3.362677296e0,-4.089083036e0,5.870092299e0,7.904820192e0
6.276356208e0,-1.553888789e0,-1.776238520e0,7.477286060e0,7.840880082e0
6.286408208e0,8.585756180e-1,1.191224009e-1,8.550119154e0,8.593944368e0
6.296460208e0,1.746665934e0,1.100588658e0,9.445285771e0,9.668275988e0
6.306513208e0,1.770034624e0,1.346637154e0,9.165008844e0,9.431004258e0
6.316565208e0,1.193567280e0,8.214724034e-1,7.754939926e0,7.889138927e0
6.326617208e0,4.198504760e-1,-3.011111408e-1,5.934341505e0,5.956790363e0
6.336669208e0,-8.612272572e-1,-1.666237190e0,4.192034962e0,4.592517380e0
6.346722208e0,-2.041596276e0,-2.896979606e0,2.640655214e0,4.419690730e0
6.356774208e0,-2.957089860e0,-3.486043314e0,1.022737659e0,4.684321802e0
6.366826208e0,-3.627816074e0,-2.914435884e0,-1.102535781e0,4.782318594e0
6.376878208e0,-3.711026338e0,-1.359295206e0,-2.669338730e0,4.769147638e0
6.386931208e0,-3.211533496e0,1.030068898e-1,-2.966860850e0,4.373422129e0
6.396983208e0,-2.553450132e0,1.214214676e0,-1.996828238e0,3.461466144e0
6.407035208e0,-2.178486026e0,2.039974258e0,-6.016048157e-1,3.044540145e0
6.417087208e0,-1.730876113e0,2.465904157e0,-5.459552564e-2,3.013236815e0
6.427140208e0,-1.342719811e0,2.257246267e0,-5.163325310e-1,2.676687595e0
6.437192208e0,-1.400965096e0,1.790992799e0,-1.238828530e0,2.589412005e0
6.447244208e0,-1.531964654e0,1.956494730e0,-1.640539116e0,2.977609094e0
6.457296208e0,-1.405349923e0,2.704120892e0,-1.312130395e0,3.317975946e0
6.467349208e0,-1.101278922e0,3.024376402e0,-1.047739184e0,3.384881871e0
6.477401208e0,-7.896500286e-1,2.343400311e0,-7.568201785e-1,2.586087580e0
6.487453208e0,-2.935021591e-1,1.047140429e0,-4.184641743e-1,1.165229102e0
6.497505208e0,2.315114406e-1,-4.098173118e-1,-5.552685553e-1,7.279223479e-1
6.507557208e0,6.468330288e-1,-6.313004851e-1,-1.282692003e0,1.569150103e0
6.517610208e0,1.169966164e0,1.350648344e-2,-2.175716346e0,2.470373427e0
6.527662208e0,1.971981957e0,7.206588042e-1,-2.578751911e0,3.325360638e0
6.537714208e0,2.626115820e0,1.055119539e0,-2.596164334e0,3.840550845e0
6.547766208e0,2.629627365e0,1.100575209e0,-2.508322198e0,3.797089164e0
6.557819208e0,2.006487546e0,1.031404402e0,-2.258386474e0,3.192193099e0
6.567871208e0,9.061860598e-1,8.919962561e-1,-1.840925535e0,2.237372862e0
6.577923208e0,-2.971231205e-1,7.687615085e-1,-1.283222638e0,1.525102208e0
6.587975208e0,-1.302060759e0,7.141274643e-1,-6.894817427e-1,1.637292072e0
6.598028208e0,-2.127124376e0,6.276184934e-1,-1.275844914e-1,2.221450177e0
6.608080208e0,-2.846471357e0,4.121643841e-1,1.390418181e-1,2.879515809e0
6.618132208e0,-3.610300739e0,1.449290872e-1,-1.079325843e-1,3.614820232e0
6.628184208e0,-4.524751181e0,-4.689010870e-1,-1.048424478e0,4.668236858e0
6.638237208e0,-5.533696135e0,-1.711252565e0,-2.653851795e0,6.371272056e0
6.648289208e0,-6.467497060e0,-2.981251432e0,-4.386920613e0,8.364296192e0
6.658341208e0,-7.079977697e0,-3.409399765e0,-5.479379010e0,9.579858312e0
6.668393208e0,-7.034184642e0,-2.987046023e0,-5.929618124e0,9.672774608e0
6.678446208e0,-6.298749340e0,-2.543211949e0,-5.815146013e0,8.941928954e0
6.688498208e0,-5.062142751e0,-2.549564949e0,-5.393530775e0,7.824049136e0
6.698550208e0,-3.584114861e0,-2.785359183e0,-4.838414247e0,6.634331733e0
6.708602208e0,-2.160284667e0,-2.925308781e0,-4.033574541e0,5.430836481e0
6.718655208e0,-8.980899319e-1,-2.962984731e0,-3.191227870e0,4.446322003e0
6.728707208e0,2.146571338e-2,-3.071481571e0,-3.037513341e0,4.319831839e0
6.738759208e0,6.162943371e-1,-3.240175497e0,-3.406710338e0,4.741754031e0
6.748811208e0,8.454290307e-1,-3.440146179e0,-4.722185633e0,5.903252759e0
6.758864208e0,-3.819211230e-2,-3.590537151e0,-6.569524541e0,7.486792929e0
6.768916208e0,-1.773074591e0,-3.776006738e0,-7.202437103e0,8.323287849e0
6.778968208e0,-3.365158562e0,-3.725606078e0,-6.256530104e0,8.021758020e0
6.789020208e0,-4.149751407e0,-3.238469279e0,-4.533386056e0,6.946920839e0
6.799072208e0,-4.688461232e0,-2.561648805e0,-2.843824908e0,6.052359328e0
6.809125208e0,-5.130894898e0,-2.338685117e0,-1.725077137e0,5.896729742e0
6.819177208e0,-5.107678528e0,-2.912507472e0,-5.185648517e-1,5.902540913e0
6.829229208e0,-4.368226773e0,-3.964870634e0,1.492370818e0,6.085127356e0
6.839281208e0,-2.913595639e0,-4.784022862e0,3.199663063e0,6.450872655e0
6.849334208e0,-9.721702804e-1,-4.870934122e0,4.182162523e0,6.493196258e0
6.859386208e0,3.561767461e-1,-5.132947855e0,4.988485376e0,7.166519511e0
6.869438208e0,1.254430948e0,-5.532481669e0,5.124899747e0,7.645034195e0
6.879490208e0,2.037569006e0,-5.912376439e0,4.503514971e0,7.706460257e0
6.889543208e0,2.789235887e0,-6.463854829e0,3.681721555e0,7.944578635e0
6.899595208e0,3.870360041e0,-6.621198725e0,3.949148641e0,8.626455494e0
6.909647583e0,4.906235517e0,-6.572676190e0,5.874211078e0,1.008848725e1
6.919699583e0,7.154632022e0,-6.395482167e0,-4.852019548e-3,9.596404278e0
6.929752583e0,7.238821403e0,-3.975437137e0,-3.304233499e0,8.895088237e0
6.939804583e0,5.379857646e0,-1.426909484e0,-4.034560089e0,6.874344629e0
6.949856583e0,3.938477764e0,3.787241578e-2,-2.124016289e0,4.474872804e0
6.959908583e0,2.450359919e0,1.033592430e0,8.722809067e-1,2.798830296e0
6.969961583e0,7.593208864e-1,1.718305476e0,2.928334715e0,3.479121459e0
6.980013583e0,-1.412057557e0,2.254253662e0,4.343177301e0,5.093010424e0
6.990065583e0,-2.320606403e0,1.980594614e0,6.100124102e0,6.820519273e0
7.000117583e0,-2.273520530e0,1.590394126e0,6.237730136e0,6.826970508e0
7.010170583e0,-1.714004849e0,1.348875468e0,5.146495854e0,5.589606178e0
7.020222583e0,-1.338230319e0,1.297744491e0,4.475093117e0,4.847830397e0
7.030274583e0,-9.264674196e-1,1.339797665e0,4.467073661e0,4.754802494e0
7.040326583e0,-5.963844947e-1,1.771528003e0,4.709564711e0,5.066950335e0
7.050378583e0,-1.791596378e-1,2.412186956e0,5.339817667e0,5.862115387e0
7.060431583e0,3.857214477e-1,3.394113389e0,6.084617286e0,6.977919049e0
7.070483583e0,8.008652806e-1,4.358896955e0,6.789690337e0,8.108098589e0
7.080535583e0,1.048417315e0,5.321518221e0,7.169954066e0,8.990326821e0
7.090587583e0,1.494954702e0,6.319043856e0,7.320502328e0,9.785446292e0
7.100640583e0,1.967205952e0,7.042825073e0,7.187906772e0,1.025364755e1
7.110692583e0,2.762458855e0,7.496870724e0,6.865129359e0,1.053395703e1
7.120744583e0,3.824314680e0,7.845427927e0,6.413081117e0,1.083068472e1
7.130796583e0,4.331958833e0,8.223415920e0,5.802321900e0,1.095706969e1
7.140849583e0,3.989348248e0,8.611376340e0,5.115026139e0,1.078119633e1
7.150901583e0,3.257291467e0,8.783237118e0,4.292576081e0,1.030443649e1
7.160953583e0,2.837987047e0,8.715452685e0,3.124563764e0,9.683810444e0
7.171005583e0,2.551455062e0,8.201188899e0,9.775170475e-1,8.644360119e0
7.181058583e0,2.464958078e0,7.152632859e0,-3.505347896e0,8.338083654e0
7.191110583e0,2.459699969e0,5.554736756e0,-8.536754758e0,1.047766225e1
7.201162583e0,2.999351781e0,2.875893377e0,-1.264525874e1,1.331050121e1
7.211214583e0,4.578135090e0,-2.344729968e0,-1.421550511e1,1.511746226e1
7.221267583e0,1.951917237e0,-1.108094144e1,-1.413611863e1,1.806729349e1
7.231319583e0,-3.790842878e0,-1.984955935e1,-1.208864123e1,2.354805178e1
7.241371583e0,-5.498660789e0,-2.291022357e1,-5.680046096e0,2.423585233e1
7.251423583e0,-5.887289545e0,-1.851832493e1,-1.576988507e0,1.949552331e1
7.261476583e0,-4.928121060e0,-9.128028713e0,-1.087558722e0,1.043024781e1
7.271528583e0,-2.374128014e0,-2.392499966e0,-1.706919486e0,3.778109851e0
7.281580583e0,-6.230592001e-1,1.695584366e0,-2.225676272e0,2.866503790e0
7.291632583e0,6.329633602e-1,4.687911594e0,-5.800826767e-1,4.765884350e0
7.301684583e0,1.254593208e0,7.943683369e0,2.682431231e0,8.477708823e0
7.311737583e0,1.595184457e0,1.086482133e1,5.230756570e0,1.216346046e1
7.321789583e0,2.114675362e0,1.197413404e1,8.301231251e0,1.472284545e1
7.331841583e0,4.008713349e0,1.022172701e1,8.406068319e0,1.382806821e1
7.341893583e0,6.802353067e0,7.352449760e0,6.625760722e0,1.200963071e1
7.351946583e0,1.011983460e1,6.617703259e-2,4.915325013e0,1.125059340e1
7.361998583e0,1.147412225e1,-9.392538038e0,6.043333604e0,1.601240561e1
7.372050583e0,8.683032798e0,-1.416998103e1,7.213485417e0,1.811678208e1
7.382102583e0,4.801485280e0,-1.605015088e1,4.584857926e0,1.736901052e1
7.392155583e0,-1.521037085e0,-1.544742691e1,2.041230971e0,1.565577133e1
7.402207583e0,-6.272999956e0,-1.152943925e1,2.691571598e0,1.339862141e1
7.412259583e0,-5.590158019e0,-3.445849553e0,6.207338648e0,9.036304494e0
7.422311583e0,-2.434531214e0,1.543607045e0,9.644285231e0,1.006587813e1
7.432364583e0,8.797311366e-2,3.195717362e0,1.081585090e1,1.127842983e1
7.442416583e0,1.202332841e0,3.643461469e0,9.662537899e0,1.039639622e1
7.452468583e0,1.727267504e0,3.187025476e0,7.325948424e0,8.173744841e0
7.462520583e0,1.530268084e0,2.210224128e0,4.635988319e0,5.359029651e0
7.472573583e0,7.205330160e-1,8.803673136e-1,2.583741925e0,2.823107644e0
7.482625583e0,-3.174912384e-1,-6.400970364e-1,8.145756125e-1,1.083539723e0
7.492677583e0,-1.293654071e0,-2.258028624e0,-1.543978343e0,3.025905360e0
7.502729583e0,-2.006200448e0,-2.745081807e0,-3.196576903e0,4.666735290e0
7.512781583e0,-2.035200883e0,-1.423255559e0,-3.404219717e0,4.213835652e0
7.522834583e0,-1.362065617e0,1.672964412e-1,-2.178665535e0,2.574838705e0
7.532886583e0,-5.858085626e-1,1.348474349e0,-4.443018508e-1,1.535890255e0
7.542938583e0,-2.255460381e-1,2.169664332e0,6.610967267e-1,2.279333940e0
7.552990583e0,-3.101582818e-1,2.501371613e0,1.088081464e0,2.745355966e0
7.563043583e0,-8.739578882e-1,2.241442412e0,9.082632101e-1,2.571538165e0
7.573095583e0,-1.353173756e0,2.113699461e0,4.378313220e-1,2.547646147e0
7.583147583e0,-1.639880866e0,2.487889688e0,1.914437608e-1,2.985875930e0
7.593199583e0,-1.726450648e0,2.825466405e0,6.419957735e-2,3.311799183e0
7.603252583e0,-1.569143005e0,2.699810910e0,-6.073818648e-1,3.181210689e0
7.613304583e0,-1.513012951e0,1.882404075e0,-1.167536938e0,2.682498051e0
7.623356583e0,-1.313343400e0,2.647975928e-1,-1.541856388e0,2.042623258e0
7.633408583e0,-9.323543233e-1,-5.811097401e-1,-2.254029713e0,2.507513323e0
7.643461583e0,-6.975412524e-1,-3.361564279e-1,-3.204926727e0,3.297138193e0
7.653513583e0,-3.477856627e-1,4.384721768e-1,-3.555774869e0,3.599548254e0
7.663565583e0,8.057667822e-2,1.082545320e0,-3.172074730e0,3.352678790e0
7.673617583e0,2.758915150e-1,1.374686247e0,-2.606454849e0,2.959642763e0
7.683670583e0,1.454266852e-1,1.384191481e0,-2.033967998e0,2.464581261e0
7.693722583e0,-1.341821972e-1,1.223515842e0,-1.378940681e0,1.848370439e0
7.703774583e0,-3.718340912e-1,1.049705603e0,-7.790619636e-1,1.359073209e0
7.713826583e0,-6.492882746e-1,9.535042870e-1,-3.558849335e-1,1.207228137e0
7.723878583e0,-1.032277172e0,8.058275932e-1,-4.977281526e-2,1.310508147e0
7.733931583e0,-1.497933566e0,5.002854323e-1,8.363623381e-2,1.581482059e0
7.743983583e0,-2.023969259e0,6.009826720e-2,-1.196691155e-1,2.028394454e0
7.754035583e0,-2.671846016e0,-5.847578180e-1,-8.122544141e-1,2.853149150e0
7.764087583e0,-3.545918802e0,-1.381568420e0,-2.128049698e0,4.360145292e0
7.774140583e0,-4.652607568e0,-2.175941902e0,-3.889209418e0,6.442626036e0
7.784192583e0,-5.531815086e0,-2.870426815e0,-5.601733167e0,8.379722115e0
7.794244583e0,-5.750937738e0,-2.824920859e0,-6.040242766e0,8.805566160e0
7.804296583e0,-5.618159750e0,-2.437026513e0,-5.008472328e0,7.911233296e0
7.814349583e0,-5.175066519e0,-1.962905617e0,-3.778949349e0,6.701848261e0
7.824401583e0,-4.732193727e0,-2.037275768e0,-2.875280589e0,5.900117668e0
7.834453583e0,-4.408731020e0,-2.666192928e0,-2.133078450e0,5.576335500e0
7.844505583e0,-3.848106123e0,-3.529329082e0,-1.527161751e0,5.440248847e0
7.854558583e0,-3.234043814e0,-4.314973841e0,-1.513192753e0,5.600695577e0
7.864610583e0,-2.604432882e0,-4.525874138e0,-2.059339213e0,5.613152888e0
7.874662583e0,-1.934141555e0,-4.261289384e0,-3.619795448e0,5.916283450e0
7.884714583e0,-1.294855381e0,-4.010328643e0,-5.546377577e0,6.965751252e0
7.894766583e0,-1.227890729e0,-4.085205163e0,-7.033235639e0,8.225753487e0
7.904819583e0,-2.052665347e0,-3.991597087e0,-7.530837200e0,8.766971613e0
7.914870708e0,-2.849519219e0,-3.612472395e0,-6.648660758e0,8.085444110e0
7.924922708e0,-3.154281653e0,-3.002903087e0,-5.146864228e0,6.742190377e0
7.934974708e0,-2.885853524e0,-2.749046220e0,-3.933252400e0,5.599632142e0
7.945027708e0,-2.478182141e0,-3.092801689e0,-2.087105740e0,4.479153868e0
7.955079708e0,-2.033525656e0,-3.427505084e0,9.393797529e-1,4.094563715e0
7.965131708e0,-9.664190322e-1,-3.442922437e0,3.510308674e0,5.010982702e0
7.975183708e0,7.120613506e-1,-3.418747709e0,4.518827659e0,5.710925553e0
7.985236708e0,1.886078173e0,-3.812883958e0,5.000306107e0,6.564939917e0
7.995288708e0,2.629324771e0,-4.287100164e0,5.171730098e0,7.213831767e0
8.005340708e0,3.253138482e0,-4.189225960e0,4.783942755e0,7.142732839e0
8.015392708e0,3.443372965e0,-4.049603806e0,3.972580773e0,6.636076126e0
8.025445708e0,3.430977745e0,-4.212493200e0,3.056089361e0,6.233489346e0
8.035497708e0,4.448714573e0,-4.940518327e0,2.470429902e0,7.092447151e0
8.045549708e0,4.981114376e0,-5.929032817e0,1.979957559e0,7.992819434e0
8.055601708e0,4.223136595e0,-4.963419532e0,6.036222513e-1,6.544828185e0
8.065654708e0,3.141162548e0,-3.069801081e0,-1.673512881e0,4.700130444e0
8.075706708e0,2.478965083e0,-1.576564876e0,-1.962827118e0,3.533201803e0
8.085758708e0,1.213601888e0,-3.554884923e-1,3.049087612e-1,1.300834718e0
8.095810708e0,-7.662966147e-1,4.997878343e-1,2.919941622e0,3.059911348e0
8.105862708e0,-2.417729824e0,1.121110631e0,4.624859898e0,5.337755673e0
8.115915708e0,-3.282456421e0,1.219342099e0,5.508354303e0,6.527119000e0
8.125967708e0,-3.203636246e0,1.075961355e0,5.290547858e0,6.277808111e0
8.136019708e0,-2.541379432e0,1.095359493e0,4.902562881e0,5.629702002e0
8.146071708e0,-1.655521875e0,1.377709258e0,5.078811994e0,5.516626392e0
8.156124708e0,-9.364887433e-1,1.833130758e0,5.386829281e0,5.766741649e0
8.166176708e0,-2.543857482e-1,2.497148169e0,5.538189136e0,6.080460508e0
8.176228708e0,5.505309219e-1,3.143210535e0,6.137522893e0,6.917517186e0
8.186280708e0,1.237919288e0,3.973835000e0,6.760620904e0,7.939131173e0
8.196333708e0,1.511315504e0,4.788242798e0,7.199538054e0,8.777510572e0
8.206385708e0,1.565009608e0,5.591537962e0,7.451655375e0,9.446783563e0
8.216437708e0,1.549119507e0,6.366194633e0,7.572394531e0,1.001345916e1
8.226489708e0,2.051590337e0,7.060352102e0,7.417694746e0,1.044412706e1
8.236542708e0,2.968289032e0,7.686945578e0,7.170490841e0,1.092317770e1
8.246594708e0,3.919928057e0,8.141378315e0,6.777783651e0,1.129540739e1
8.256646708e0,4.421479120e0,8.601006303e0,6.090592555e0,1.142900279e1
8.266698708e0,4.468750058e0,9.087027453e0,5.189032593e0,1.137848207e1
8.276750708e0,4.116192482e0,9.383385977e0,4.404021673e0,1.115286420e1
8.286803708e0,3.794282210e0,9.351839663e0,3.625771303e0,1.072379131e1
8.296855708e0,3.455217670e0,8.643617302e0,2.235465388e0,9.573293828e0
8.306907708e0,2.663317852e0,7.110698968e0,-1.610552402e0,7.762034580e0
8.316959708e0,1.964623383e0,4.810797848e0,-8.592912587e0,1.004199520e1
8.327012708e0,2.241334823e0,1.131740284e0,-1.609168483e1,1.628639734e1
8.337064708e0,5.733660386e0,-5.674695894e0,-1.829992909e1,1.999911097e1
8.347116708e0,5.095026323e0,-1.513095104e1,-1.180103891e1,1.985370222e1
8.357168708e0,-2.038671206e0,-2.330955799e1,-9.483792025e0,2.524745503e1
8.367221708e0,-7.079170196e0,-2.316775600e1,-6.548011465e0,2.509454169e1
8.377273708e0,-8.447985254e0,-1.392813317e1,-3.233467864e0,1.660772901e1
8.387325708e0,-6.596422902e0,-5.855621610e0,-1.547451589e0,8.955205523e0
8.397377708e0,-3.017668476e0,-1.173295861e0,-9.902034590e-1,3.385771566e0
8.407430708e0,-6.281532213e-1,2.278381612e0,-1.594221713e0,2.850814289e0
8.417482708e0,2.852110997e-1,4.681004863e0,-1.756159181e0,5.007718739e0
8.427534708e0,4.464613737e-1,7.084098229e0,2.073536691e-1,7.101180960e0
8.437586708e0,-8.612627059e-2,1.006992745e1,2.165648464e0,1.030052862e1
8.447638708e0,-1.515428728e-1,1.237483203e1,4.354896875e0,1.311962499e1
8.457691708e0,6.373428516e-1,1.201784431e1,7.843607104e0,1.436513001e1
8.467743708e0,2.541531460e0,9.549229969e0,8.317755482e0,1.291635519e1
8.477795708e0,5.315210245e0,5.608587273e0,8.869882329e0,1.176361015e1
8.487847708e0,9.121779209e0,-3.545810044e0,6.794228361e0,1.191390632e1
8.497900708e0,1.228077840e1,-1.331196762e1,8.145687128e0,1.985895815e1
8.507952708e0,1.071388832e1,-2.138702857e1,1.701687397e0,2.398099527e1
8.518004708e0,4.307473325e0,-2.311377450e1,-3.429890163e0,2.376057753e1
8.528056708e0,-2.681173202e0,-1.702043083e1,-1.808976495e0,1.732501519e1
8.538109708e0,-4.692176553e0,-6.366688723e0,2.563615808e0,8.314046675e0
8.548161708e0,-2.455271873e0,1.870778056e0,8.244839534e0,8.803723612e0
8.558213708e0,9.173451785e-1,5.532236670e0,1.335998729e1,1.448918304e1
8.568265708e0,2.720841883e0,6.490916913e0,1.244342221e1,1.429593436e1
8.578318708e0,3.192396144e0,6.256765162e0,9.893250318e0,1.213321496e1
8.588370708e0,3.555987123e0,4.791116704e0,7.248526611e0,9.388342864e0
8.598422708e0,3.204792241e0,2.697591891e0,4.657610153e0,6.264265931e0
8.608474708e0,2.134489529e0,3.699802315e-1,2.190690919e0,3.080918309e0
8.618526708e0,1.163894708e0,-1.879485730e0,2.005173969e-1,2.219757808e0
8.628579708e0,3.723629354e-1,-3.625849071e0,-6.072736913e-1,3.695161292e0
8.638631708e0,-3.358816453e-1,-3.883317178e0,-9.409222484e-1,4.009775987e0
8.648683708e0,-1.187469512e0,-2.715714751e0,-1.534584206e0,3.337684697e0
8.658735708e0,-1.956426317e0,-7.668254954e-1,-1.802546897e0,2.768537627e0
8.668788708e0,-2.217844512e0,1.222455157e0,-1.270201181e0,2.833132882e0
8.678840708e0,-1.945370109e0,2.680840788e0,-2.136911372e-1,3.319192085e0
8.688892708e0,-1.859404637e0,3.243877954e0,5.968884150e-1,3.786344618e0
8.698944708e0,-1.865399495e0,2.999902296e0,9.871655381e-1,3.667918328e0
8.708997708e0,-1.956225465e0,2.455100257e0,1.004525337e0,3.295968218e0
8.719049708e0,-2.001453386e0,2.145768515e0,5.909639796e-1,2.993221776e0
8.729101708e0,-1.836951329e0,2.053332807e0,-6.212081909e-3,2.755105151e0
8.739153708e0,-1.567367206e0,1.527045391e0,-8.777810901e-1,2.357754700e0
8.749206708e0,-1.225427881e0,2.287126708e-1,-1.520658478e0,1.966312585e0
8.759258708e0,-3.024343657e-1,-6.731805825e-1,-2.108384342e0,2.233813595e0
8.769310708e0,9.068926227e-1,-4.504987299e-1,-2.874327493e0,3.047484515e0
8.779362708e0,1.692921544e0,3.187673932e-1,-3.586255819e0,3.978545815e0
8.789414708e0,1.844923423e0,8.721227396e-1,-3.885723892e0,4.388985154e0
8.799467708e0,1.502119296e0,1.013966251e0,-3.809580281e0,4.218695515e0
8.809519708e0,6.170639768e-1,1.130129961e0,-3.331308446e0,3.571495155e0
8.819571708e0,-2.748249098e-1,1.190766757e0,-2.554545608e0,2.831811692e0
8.829623708e0,-8.900997117e-1,1.249554078e0,-1.621393139e0,2.232169035e0
8.839676708e0,-1.317294656e0,1.308184694e0,-7.986488204e-1,2.021002806e0
8.849728708e0,-1.515390721e0,1.257271233e0,-1.785096467e-1,1.977120554e0
8.859780708e0,-1.681635248e0,1.096596764e0,2.174928872e-1,2.019337695e0
8.869832708e0,-2.132791205e0,7.357229859e-1,2.596847874e-1,2.271018015e0
8.879885708e0,-2.761156096e0,8.352513671e-2,-1.761193049e-1,2.768027717e0
8.889937708e0,-3.365984774e0,-6.552904415e-1,-8.381799451e-1,3.530128139e0
8.899989708e0,-4.047309943e0,-1.582389287e0,-2.018570379e0,4.791586377e0
8.910042083e0,-4.828000064e0,-2.457613975e0,-3.476973113e0,6.437297033e0
8.920094083e0,-5.551906119e0,-2.983416656e0,-4.772690374e0,7.905884511e0
8.930147083e0,-5.960269228e0,-2.924812353e0,-5.537915486e0,8.645683576e0
8.940199083e0,-5.889309758e0,-2.436228368e0,-5.639097460e0,8.509911765e0
8.950251083e0,-5.237027124e0,-2.035076045e0,-5.255891996e0,7.693658966e0
8.960303083e0,-4.324296641e0,-1.970360232e0,-4.259805946e0,6.381834186e0
8.970356083e0,-3.267329382e0,-2.179256104e0,-2.720543090e0,4.777651427e0
8.980408083e0,-1.938477558e0,-2.526061481e0,-1.532466052e0,3.533713918e0
8.990460083e0,-7.580323063e-1,-2.859329969e0,-1.382546221e0,3.265243468e0
9.000512083e0,-6.170756713e-2,-3.158024456e0,-2.418353576e0,3.978110143e0
9.010565083e0,4.197545086e-1,-3.510857143e0,-4.590976160e0,5.794771249e0
9.020617083e0,2.382092799e-1,-4.043039137e0,-6.794371617e0,7.909892211e0
9.030669083e0,-1.159323647e0,-4.535909715e0,-7.687122749e0,9.000575783e0
9.040721083e0,-2.890191574e0,-4.530598104e0,-7.151485051e0,8.945572365e0
9.050774083e0,-3.991811680e0,-4.299954683e0,-5.860574201e0,8.292798124e0
9.060826083e0,-4.904265005e0,-3.641117320e0,-4.311705247e0,7.476653845e0
9.070878083e0,-5.590522301e0,-2.723892667e0,-3.226837413e0,7.006140917e0
9.080930083e0,-5.641786594e0,-2.220747947e0,-2.541225650e0,6.574139124e0
9.090983083e0,-4.877985279e0,-2.222553567e0,-6.528235012e-1,5.400061413e0
9.101035083e0,-3.512590258e0,-2.710876765e0,1.967835989e0,4.853815163e0
9.111087083e0,-1.791310887e0,-3.634629834e0,3.402454442e0,5.291127003e0
9.121139083e0,1.235340520e-1,-4.394704134e0,3.754216504e0,5.781247846e0
9.131191083e0,1.394866742e0,-5.077371824e0,4.470737818e0,6.907449205e0
9.141244083e0,2.487674510e0,-5.513828466e0,4.836129155e0,7.744609353e0
9.151296083e0,3.510148460e0,-5.712178300e0,4.375690159e0,8.006046934e0
9.161348083e0,4.446727397e0,-6.119125798e0,3.579394112e0,8.368341967e0
9.171400083e0,5.933981316e0,-6.605535203e0,1.496242844e0,9.004663915e0
9.181453083e0,9.018724372e0,-7.100147667e0,-1.894923549e0,1.163358163e1
9.191505083e0,9.248545091e0,-6.324003464e0,2.411672401e-1,1.120655022e1
9.201557083e0,6.165901769e0,-3.782715248e0,2.847769439e0,7.774128251e0
9.211609083e0,4.352149853e0,-1.378800348e0,1.620948897e0,4.844561288e0
9.221662083e0,3.195697189e0,1.201953650e-1,-7.458427620e-1,3.283779663e0
9.231714083e0,1.561583725e0,7.965884078e-1,-2.873637521e-1,1.776421894e0
9.241766083e0,-7.870728683e-2,1.255569693e0,1.730977270e0,2.139844013e0
9.251818083e0,-1.697653988e0,1.680938260e0,3.987137124e0,4.648101219e0
9.261870083e0,-2.809311717e0,1.778057588e0,4.912195584e0,5.931558527e0
9.271923083e0,-3.053102311e0,1.772820822e0,5.201997625e0,6.286899607e0
9.281975083e0,-2.688005381e0,1.847783296e0,5.373588846e0,6.286106356e0
9.292027083e0,-2.009846772e0,1.805875132e0,5.384709080e0,6.024596328e0
9.302079083e0,-9.872027410e-1,2.138071826e0,5.152800906e0,5.665445928e0
9.312132083e0,6.060156628e-2,2.944011685e0,4.939454134e0,5.750572536e0
9.322184083e0,1.080673626e-1,3.562505014e0,5.808121169e0,6.814498664e0
9.332236083e0,6.656177938e-1,4.338320019e0,6.321815436e0,7.696065101e0
9.342288083e0,1.138310800e0,5.090650266e0,6.763736300e0,8.541580671e0
9.352341083e0,1.084100168e0,5.830579154e0,7.221846351e0,9.344837675e0
9.362393083e0,1.324279009e0,6.602255500e0,7.246942016e0,9.892505303e0
9.372445083e0,1.940638835e0,7.266502122e0,7.009207676e0,1.028091068e1
9.382497083e0,2.868429991e0,7.679189247e0,6.588977643e0,1.051724605e1
9.392550083e0,3.974786635e0,7.857285495e0,6.081600122e0,1.070148234e1
9.402602083e0,4.599595833e0,8.033404800e0,5.486011507e0,1.076049240e1
9.412654083e0,4.456320339e0,8.304174154e0,4.684303862e0,1.052429580e1
9.422706083e0,4.190238990e0,8.497109467e0,4.008073956e0,1.028706124e1
9.432758083e0,3.639616925e0,8.393947041e0,3.164899612e0,9.680999320e0
9.442811083e0,2.762410908e0,7.721924207e0,1.413189870e0,8.322026982e0
9.452863083e0,2.251002317e0,6.331011937e0,-3.023894591e0,7.368355453e0
9.462915083e0,1.991200878e0,4.159044387e0,-8.932358658e0,1.005234114e1
9.472967083e0,2.488466808e0,7.574366212e-1,-1.454314799e1,1.477394094e1
9.483020083e0,5.213280412e0,-5.313885850e0,-1.636173263e1,1.797559374e1
9.493072083e0,4.256830590e0,-1.435367482e1,-1.282917706e1,1.971639854e1
9.503124083e0,-2.100073110e0,-2.233083934e1,-1.046457474e1,2.475043469e1
9.513176083e0,-5.199270483e0,-2.154320536e1,-6.394164205e0,2.306572016e1
9.523229083e0,-5.775508323e0,-1.312150627e1,-2.736436114e0,1.459515350e1
9.533281083e0,-4.839980131e0,-5.558763734e0,-1.189686191e0,7.465963779e0
9.543333083e0,-2.326341645e0,-1.395757273e0,-1.123517637e0,2.936374583e0
9.553385083e0,-7.057236267e-1,1.626166806e0,-1.238379757e0,2.162417337e0
9.563437083e0,4.905597585e-1,4.202367577e0,-1.523356383e0,4.496794058e0
9.573490083e0,1.261065784e0,6.633950332e0,-6.896928272e-1,6.787875965e0
9.583542083e0,2.060204455e0,9.000647120e0,1.143641999e0,9.303978074e0
9.593594083e0,2.928128893e0,1.057804815e1,4.542753881e0,1.187879010e1
9.603646083e0,4.173496950e0,9.883441029e0,7.581118577e0,1.313673636e1
9.613699083e0,5.079192647e0,7.669718512e0,7.672886533e0,1.197898025e1
9.623751083e0,7.406649941e0,3.264906296e0,6.157815070e0,1.017038657e1
9.633803083e0,9.210406042e0,-4.929260682e0,7.012170460e0,1.258172186e1
9.643855083e0,8.908090374e0,-1.108467898e1,8.336687597e0,1.648406935e1
9.653908083e0,7.509263898e0,-1.479587401e1,3.638621728e0,1.698665653e1
9.663960083e0,2.411981719e0,-1.432000070e1,8.218752766e-1,1.454494946e1
9.674012083e0,-3.432780734e0,-1.184682144e1,1.303361911e0,1.240281879e1
9.684064083e0,-6.084646522e0,-6.993652328e0,3.909717357e0,1.006081438e1
9.694117083e0,-4.091792344e0,-1.010732156e0,6.920517694e0,8.102956820e0
9.704169083e0,-1.170299236e0,2.283779762e0,9.784655828e0,1.011556919e1
9.714221083e0,7.505728671e-1,3.352837309e0,1.080557500e1,1.133866521e1
9.724273083e0,1.846027962e0,3.158615025e0,9.024366935e0,9.737754705e0
9.734325083e0,1.975993440e0,2.521511763e0,6.523796976e0,7.267908820e0
9.744378083e0,1.442766256e0,1.477081518e0,3.861180789e0,4.378591254e0
9.754430083e0,6.576369292e-1,2.831157500e-1,1.763425516e0,1.903236824e0
9.764482083e0,-1.887142074e-1,-7.969380713e-1,6.214736545e-1,1.028082120e0
9.774534083e0,-8.776059660e-1,-1.684292808e0,1.174857652e-1,1.902849810e0
9.784587083e0,-1.428548751e0,-1.810183945e0,-5.090305281e-1,2.361488837e0
9.794639083e0,-1.762868276e0,-8.052393633e-1,-1.455492429e0,2.423751885e0
9.804691083e0,-1.847496490e0,4.532252866e-1,-1.758071221e0,2.590264631e0
9.814743083e0,-1.855330297e0,1.491438187e0,-8.548775464e-1,2.529318880e0
9.824796083e0,-1.736707249e0,2.101479365e0,1.061760624e-1,2.728303676e0
9.834848083e0,-1.676801063e0,2.187769065e0,3.443249516e-1,2.777868780e0
9.844900083e0,-1.882234798e0,1.687751436e0,2.173421387e-1,2.537429871e0
9.854952083e0,-2.321795142e0,1.106130064e0,2.077884096e-1,2.580200074e0
9.865004083e0,-2.356089647e0,1.228980065e0,1.552370705e-1,2.661888234e0
9.875057083e0,-1.935131050e0,1.859199985e0,-3.318213753e-1,2.703971558e0
9.885109083e0,-1.662692901e0,1.991514874e0,-8.244141376e-1,2.722193572e0
9.895161083e0,-1.562617512e0,1.515424050e0,-1.396640349e0,2.586288423e0
9.905213083e0,-1.479897245e0,2.176953471e-1,-2.234590645e0,2.689030024e0
9.915265625e0,-7.279189995e-1,-6.378920513e-1,-3.123830523e0,3.270334766e0
9.925317625e0,5.220864835e-1,-3.171073687e-1,-3.940925701e0,3.987985301e0
9.935369625e0,1.800115040e0,3.700837272e-1,-4.291187367e0,4.668154362e0
9.945421625e0,2.663750546e0,8.414429837e-1,-3.946041430e0,4.834752965e0
9.955474625e0,2.677628620e0,1.145908672e0,-3.174404846e0,4.308090974e0
9.965526625e0,1.856156509e0,1.389324751e0,-2.331319525e0,3.287946317e0
9.975578625e0,8.563462939e-1,1.356897263e0,-1.524710159e0,2.213422740e0
9.985630625e0,-1.752294318e-1,1.110651716e0,-7.862600322e-1,1.372026759e0
9.995682625e0,-1.038139591e0,8.676051807e-1,-1.519295199e-1,1.361453318e0
1.000573562e1,-1.648164909e0,6.140336573e-1,4.054856944e-1,1.804966356e0
1.001578763e1,-2.204658748e0,2.614781284e-1,8.362617660e-1,2.372387984e0
1.002583962e1,-2.843562952e0,-1.145194727e-1,8.847806458e-1,2.980235186e0
1.003589162e1,-3.552225609e0,-4.454239315e-1,3.239380860e-1,3.594668989e0
1.004594462e1,-4.469133343e0,-9.948563808e-1,-8.423757608e-1,4.655372055e0
1.005599663e1,-5.530001864e0,-1.798987697e0,-2.552720692e0,6.350878702e0
1.006604862e1,-6.467275450e0,-2.493215332e0,-4.567254299e0,8.300697939e0
1.007610062e1,-7.068530018e0,-2.536180088e0,-6.078059049e0,9.661217721e0
1.008615363e1,-7.006406275e0,-2.004722564e0,-6.709943086e0,9.906158573e0
1.009620562e1,-6.393107028e0,-1.547260385e0,-6.232783391e0,9.061645600e0
1.010625762e1,-5.532518506e0,-1.611607239e0,-5.170547791e0,7.742131707e0
1.011630962e1,-4.640885070e0,-2.145639292e0,-4.116797669e0,6.564267305e0
1.012636263e1,-4.016948860e0,-2.937176290e0,-3.100830501e0,5.863278307e0
1.013641462e1,-3.291735952e0,-3.778530396e0,-2.156945468e0,5.455752128e0
1.014646662e1,-2.525333503e0,-4.508245368e0,-1.165489536e0,5.297164473e0
1.015651862e1,-1.838217544e0,-4.794350215e0,-6.583000034e-1,5.176697462e0
1.016657062e1,-1.197518536e0,-4.533532822e0,-1.310247007e0,4.868646394e0
1.017662362e1,-2.420761898e-1,-4.110668617e0,-3.431577085e0,5.360216288e0
1.018667562e1,1.535100223e-1,-3.921781917e0,-5.964738840e0,7.140171438e0
1.019672762e1,-3.698068616e-1,-3.775962884e0,-7.377938942e0,8.296302541e0
1.020677962e1,-1.002863996e0,-3.401279152e0,-6.904512695e0,7.761876811e0
1.021683262e1,-1.248469712e0,-2.992092170e0,-5.303512305e0,6.215990263e0
1.022688462e1,-1.314848473e0,-3.109306040e0,-3.598576487e0,4.934203410e0
1.023693662e1,-1.111712401e0,-3.539196843e0,-1.314517229e0,3.935705057e0
1.024698862e1,-4.626325795e-1,-3.560024625e0,1.491087354e0,3.887305716e0
1.025704162e1,5.521949664e-1,-3.356809323e0,3.118944005e0,4.615289787e0
1.026709362e1,1.312820951e0,-3.458996433e0,3.839295831e0,5.331824045e0
1.027714562e1,1.860977831e0,-3.873476899e0,4.303991016e0,6.082055610e0
1.028719762e1,2.701871176e0,-4.111560318e0,4.371979516e0,6.581735408e0
1.029724963e1,3.208909850e0,-4.022027752e0,3.925930517e0,6.471996607e0
1.030730262e1,3.213190597e0,-3.937750663e0,3.709270127e0,6.291991654e0
1.031735462e1,3.604657592e0,-3.585485741e0,5.131847409e0,7.223927061e0
1.032740663e1,3.834252900e0,-3.831226088e0,6.696896778e0,8.615579789e0
1.033745862e1,5.261990642e0,-4.768608432e0,3.789003052e-2,7.101380679e0
1.034751162e1,5.174955422e0,-3.334728482e0,-4.484662378e0,7.616611734e0
1.035756362e1,3.654235841e0,-1.325208862e0,-5.207495177e0,6.498278551e0
1.036761563e1,2.216222494e0,-2.287524319e-1,-2.653059497e0,3.464490513e0
1.037766762e1,4.455277196e-1,7.607958466e-1,8.256970167e-1,1.207924183e0
1.038772062e1,-1.482801557e0,1.580907018e0,3.383706515e0,4.018387392e0
1.039777263e1,-2.968236407e0,2.021118157e0,5.046165819e0,6.193475232e0
1.040782462e1,-3.142578159e0,1.940364016e0,4.953307357e0,6.178678157e0
1.041787662e1,-2.289673463e0,1.601875718e0,4.449707723e0,5.254380001e0
1.042792862e1,-1.637319493e0,1.329871432e0,4.267091869e0,4.759983841e0
1.043798163e1,-1.228350320e0,1.162937518e0,4.241029952e0,4.565917567e0
1.044803362e1,-6.115993153e-1,1.291640582e0,4.216660803e0,4.452259813e0
1.045808562e1,6.701610804e-2,1.658818828e0,4.409179502e0,4.711372936e0
1.046813762e1,6.340048224e-1,2.129702121e0,4.990141307e0,5.462518055e0
1.047819062e1,1.085664663e0,2.812797242e0,5.726578238e0,6.471799935e0
1.048824262e1,1.176206459e0,3.610679639e0,6.296291755e0,7.352806196e0
1.049829462e1,1.254878553e0,4.496918727e0,6.748314269e0,8.205896885e0
1.050834662e1,1.573983038e0,5.486789771e0,6.847729214e0,8.914801175e0
1.051839962e1,2.113860260e0,6.424556277e0,6.648844360e0,9.484221628e0
1.052845162e1,2.802732722e0,7.153756694e0,6.498390239e0,1.006283366e1
1.053850362e1,3.122459059e0,7.606457486e0,6.328463135e0,1.037580800e1
1.054855562e1,3.436956815e0,8.024995335e0,5.652081202e0,1.039996366e1
1.055860762e1,3.473148741e0,8.404345145e0,4.745338268e0,1.025738830e1
1.056866062e1,3.284489205e0,8.598108423e0,3.724564104e0,9.929134683e0
1.057871262e1,2.845614156e0,8.451212917e0,2.224584305e0,9.190717873e0
1.058876462e1,2.240314192e0,7.825387765e0,-1.028172354e0,8.204440245e0
1.059881662e1,1.765489291e0,6.730986046e0,-6.279191573e0,9.372906294e0
1.060886962e1,1.968841418e0,5.036598605e0,-1.143636678e1,1.265046035e1
1.061892162e1,4.195768117e0,1.550660541e0,-1.579290146e1,1.641416324e1
1.062897362e1,5.126764424e0,-5.182449213e0,-1.484045084e1,1.653422132e1
1.063902563e1,-1.245404309e-1,-1.517262532e1,-1.385062482e1,2.054419327e1
1.064907862e1,-4.848767035e0,-2.208822901e1,-7.614244223e0,2.386162437e1
1.065913062e1,-4.707108880e0,-2.158841603e1,-2.185591270e0,2.220345446e1
1.066918262e1,-4.352783399e0,-1.414874160e1,-1.499675159e0,1.487893269e1
1.067923463e1,-2.799674921e0,-5.014162838e0,-2.191246405e0,6.146671411e0
1.068928662e1,-6.966366881e-1,2.850617033e-1,-3.132558078e0,3.221720497e0
1.069933962e1,5.742612619e-1,3.857813963e0,-1.939836889e0,4.356084449e0
1.070939163e1,1.461432176e0,6.856153298e0,1.613644994e0,7.193502083e0
1.071944362e1,1.834943688e0,9.640582774e0,5.510054673e0,1.125471266e1
1.072949562e1,2.527429145e0,1.078194524e1,8.847598590e0,1.417456320e1
1.073954862e1,4.386634685e0,9.113760923e0,8.593928833e0,1.327248337e1
1.074960063e1,7.084822115e0,5.737517794e0,6.174984834e0,1.101109679e1
1.075965262e1,8.707067193e0,-1.874396898e0,5.787445999e0,1.062171898e1
1.076970462e1,8.053298197e0,-7.899268504e0,7.941574863e0,1.379574812e1
1.077975763e1,5.708143137e0,-1.054762158e1,7.865609007e0,1.434235072e1
1.078980962e1,2.233217865e0,-1.134115189e1,5.738567369e0,1.290504334e1
1.079986162e1,-1.894040911e0,-9.523164836e0,4.012733310e0,1.050619284e1
1.080991362e1,-5.173080804e0,-7.626099452e0,3.838541540e0,9.982612835e0
1.081996562e1,-4.975150800e0,-3.807113925e0,5.454823043e0,8.306704302e0
1.083001862e1,-1.685276017e0,-4.569803685e-1,7.582029573e0,7.780498618e0
1.084007062e1,9.714075842e-1,1.087178653e0,9.472378260e0,9.583920910e0
1.085012262e1,1.787525985e0,1.886988877e0,8.856277027e0,9.229822260e0
1.086017462e1,1.658733166e0,1.855732001e0,6.483080474e0,6.944456020e0
1.087022762e1,9.735254458e-1,1.072302752e0,3.926393616e0,4.184991256e0
1.088027962e1,1.721455006e-1,-2.887998283e-2,1.551369224e0,1.561158094e0
1.089033162e1,-6.395213780e-1,-1.350598642e0,-6.633958519e-1,1.634991848e0
1.090038362e1,-1.175325137e0,-2.379708012e0,-2.365446653e0,3.555240818e0
1.091043662e1,-1.488399681e0,-2.151212858e0,-2.979766824e0,3.965105383e0
1.092048908e1,-1.494263561e0,-8.327546060e-1,-2.621360571e0,3.130149369e0
1.093054108e1,-1.279727465e0,5.964393854e-1,-1.194105517e0,1.849143129e0
1.094059308e1,-1.105783909e0,1.534028721e0,3.648101234e-1,1.925899425e0
1.095064508e1,-8.871437249e-1,1.887824444e0,1.241250447e0,2.427263437e0
1.096069808e1,-7.826240873e-1,1.969898887e0,1.037209518e0,2.359831704e0
1.097075008e1,-1.109526346e0,1.972924236e0,2.667429980e-1,2.279173223e0
1.098080208e1,-1.644598692e0,2.547948779e0,2.948509656e-2,3.032757360e0
1.099085408e1,-1.945491147e0,3.464374117e0,4.831663929e-2,3.973557389e0
1.100090708e1,-1.954305532e0,3.901901384e0,-3.757795731e-1,4.380108995e0
1.101095908e1,-2.051941170e0,3.764050936e0,-7.494564144e-1,4.352037101e0
1.102101108e1,-2.095681851e0,2.893399356e0,-9.967842809e-1,3.709072816e0
1.103106308e1,-1.991859275e0,9.841600692e-1,-1.210844779e0,2.530260756e0
1.104111508e1,-1.520057384e0,-6.551664805e-1,-1.665351337e0,2.348023135e0
1.105116808e1,-7.716783189e-1,-1.223865505e0,-2.383918446e0,2.788619974e0
1.106122008e1,1.766113481e-1,-9.316620129e-1,-2.980252143e0,3.127473183e0
1.107127208e1,1.214190702e0,-8.345321596e-2,-2.985980076e0,3.224484534e0
1.108132408e1,1.790473566e0,6.309999382e-1,-2.680892243e0,3.284987022e0
1.109137708e1,1.802515907e0,9.337114620e-1,-2.394740765e0,3.139373189e0
1.110142908e1,1.258239824e0,9.789127779e-1,-2.031893406e0,2.582639831e0
1.111148108e1,2.308587451e-1,7.821054393e-1,-1.492470074e0,1.700720906e0
1.112153308e1,-7.109842935e-1,5.852232563e-1,-8.834406102e-1,1.276108239e0
1.113158608e1,-1.380660640e0,4.832583404e-1,-2.981530344e-1,1.492868935e0
1.114163808e1,-1.877559072e0,3.892865682e-1,1.977545875e-1,1.927661531e0
1.115169008e1,-2.479950339e0,1.317032701e-1,4.627673578e-1,2.526193393e0
1.116174208e1,-3.127877966e0,-3.167805094e-1,1.247537081e-1,3.146352483e0
1.117179408e1,-3.769690576e0,-1.080152054e0,-1.017954637e0,4.051361146e0
1.118184708e1,-4.383069929e0,-2.027220311e0,-2.572515855e0,5.471632482e0
1.119189908e1,-4.937769551e0,-2.658243638e0,-4.163003536e0,6.984155341e0
1.120195108e1,-5.153185068e0,-2.611523216e0,-5.491881527e0,7.970955561e0
1.121200308e1,-4.985693330e0,-1.947799335e0,-5.746321946e0,7.853106146e0
1.122205608e1,-4.706289977e0,-1.489508606e0,-5.252707018e0,7.208240579e0
1.123210808e1,-4.569019866e0,-1.548369602e0,-4.294071507e0,6.458516940e0
1.124216008e1,-4.461954131e0,-2.114993450e0,-3.295417067e0,5.936497756e0
1.125221208e1,-4.266856226e0,-2.793597325e0,-2.434768319e0,5.651402024e0
1.126226508e1,-4.019274883e0,-3.408707455e0,-1.877582169e0,5.594566283e0
1.127231708e1,-3.848633542e0,-3.848384158e0,-2.145901540e0,5.850378978e0
1.128236908e1,-3.545563291e0,-3.919716681e0,-3.192409008e0,6.174680006e0
1.129242108e1,-3.213386186e0,-3.827523047e0,-4.743591997e0,6.890388123e0
1.130247308e1,-3.143643521e0,-3.728854791e0,-6.095279683e0,7.806361961e0
1.131252608e1,-3.333825672e0,-3.740569103e0,-6.567675067e0,8.260787287e0
1.132257808e1,-3.792101199e0,-3.577571535e0,-5.744057904e0,7.757141922e0
1.133263008e1,-4.237547350e0,-3.140595075e0,-4.135221076e0,6.702253227e0
1.134268208e1,-4.181821631e0,-2.767202994e0,-2.853141861e0,5.769355513e0
1.135273508e1,-3.628287944e0,-3.105343966e0,-2.186715397e0,5.252557357e0
1.136278708e1,-2.848469936e0,-4.108832007e0,-5.571577907e-1,5.030577128e0
1.137283908e1,-1.665777014e0,-4.915630823e0,2.195215495e0,5.635353628e0
1.138289108e1,2.511862980e-1,-4.991338232e0,3.790490291e0,6.272508952e0
1.139294408e1,1.898332475e0,-4.996698959e0,4.336360032e0,6.882927067e0
1.140299608e1,2.737010896e0,-5.295741940e0,4.898990232e0,7.715971529e0
1.141304808e1,3.397016532e0,-5.272731977e0,4.756195378e0,7.871646479e0
1.142310008e1,3.933796484e0,-4.925792114e0,3.944737501e0,7.436338930e0
1.143315208e1,4.312377969e0,-4.783342246e0,2.626868649e0,6.955386811e0
1.144320508e1,5.284801800e0,-4.807915170e0,8.434934561e-1,7.194210141e0
1.145325708e1,6.972862553e0,-4.763253552e0,-1.830337251e0,8.640574694e0
1.146330908e1,7.294186934e0,-4.525915654e0,-1.258427520e-1,8.585156488e0
1.147336108e1,4.669242604e0,-2.730538613e0,3.840734246e0,6.633920949e0
1.148341408e1,2.958017521e0,-7.034054250e-1,3.851918800e0,4.907333827e0
1.149346608e1,2.008853037e0,5.528133094e-1,1.358479373e0,2.487279495e0
1.150351808e1,6.301523843e-1,1.083522974e0,-3.564146912e-1,1.303129117e0
1.151357008e1,-6.449741989e-1,1.350457140e0,6.159360489e-1,1.618364427e0
1.152362308e1,-1.951047756e0,1.612359191e0,2.522589112e0,3.573478045e0
1.153367508e1,-3.073178433e0,1.699818919e0,3.939252813e0,5.277454193e0
1.154372708e1,-3.596332326e0,1.482592519e0,4.668447382e0,6.076683943e0
1.155377908e1,-3.096630738e0,1.279788276e0,5.238771933e0,6.218658322e0
1.156383108e1,-2.659905417e0,1.138377458e0,5.612326568e0,6.314206963e0
1.157388408e1,-1.829516302e0,1.172420533e0,5.425591643e0,5.844548270e0
1.158393608e1,-6.603070602e-1,1.726178167e0,5.157634799e0,5.478767490e0
1.159398808e1,4.371697826e-1,2.489583626e0,5.419854355e0,5.980298093e0
1.160404008e1,1.215166968e0,3.291546795e0,6.099865655e0,7.036993113e0
1.161409308e1,1.690363387e0,4.060591308e0,6.590680937e0,7.923560144e0
1.162414508e1,1.609093229e0,4.860804990e0,6.815402298e0,8.524453921e0
1.163419708e1,1.579639634e0,5.743808228e0,6.909477566e0,9.122909326e0
1.164424908e1,1.914573117e0,6.577193164e0,6.958494775e0,9.764512772e0
1.165430108e1,2.390536763e0,7.217431703e0,6.857263100e0,1.023855672e1
1.166435408e1,3.295557400e0,7.671849237e0,6.631298620e0,1.066264933e1
1.167440608e1,4.001400822e0,8.038373179e0,6.150620656e0,1.088378548e1
1.168445808e1,4.245891619e0,8.413135264e0,5.402608577e0,1.086262492e1
1.169451008e1,4.278010375e0,8.714435270e0,4.682683306e0,1.077823166e1
1.170456308e1,4.131921785e0,8.738531646e0,4.034835493e0,1.047447423e1
1.171461508e1,3.747214171e0,8.174557756e0,2.795564621e0,9.417015987e0
1.172466708e1,3.054697139e0,6.820664792e0,-4.372582948e-1,7.486243225e0
1.173471908e1,2.769779569e0,4.796599638e0,-6.741122779e0,8.724779841e0
1.174477208e1,3.295963197e0,1.702458937e0,-1.370146937e1,1.419478787e1
1.175482408e1,5.776247411e0,-3.980678582e0,-1.878282841e1,2.005007429e1
1.176487608e1,4.959016578e0,-1.267934333e1,-1.396492151e1,1.950324654e1
1.177492808e1,-1.381776727e0,-2.121135015e1,-9.816424921e0,2.341351917e1
1.178498008e1,-4.925565827e0,-2.211809425e1,-6.952919455e0,2.370262392e1
1.179503308e1,-5.768150187e0,-1.451485682e1,-3.704250585e0,1.605223030e1
1.180508508e1,-4.874921338e0,-6.546556093e0,-1.676709846e0,8.332683280e0
1.181513708e1,-2.267337099e0,-2.119590531e0,-1.271012482e0,3.353946074e0
1.182518908e1,-3.889502802e-1,1.085216913e0,-1.105188955e0,1.597003661e0
1.183524208e1,7.135550950e-1,3.670855674e0,-1.580125538e0,4.059696906e0
1.184529408e1,1.427071891e0,6.015839412e0,-1.381307342e0,6.335208598e0
1.185534608e1,1.909091937e0,8.531202827e0,1.581250834e-1,8.743629523e0
1.186539808e1,2.117765615e0,1.065005427e1,2.592432057e0,1.116374897e1
1.187545108e1,2.731630288e0,1.050333944e1,6.502390319e0,1.265160161e1
1.188550308e1,3.534185779e0,8.609658428e0,8.351977481e0,1.250488765e1
1.189555508e1,5.135901284e0,5.309799231e0,8.109311600e0,1.096961187e1
1.190560708e1,6.969105717e0,-1.712970477e0,8.696110096e0,1.127497375e1
1.191565912e1,7.821676537e0,-9.746713246e0,9.634667730e0,1.577985631e1
1.192571212e1,7.626554366e0,-1.486353214e1,5.091243174e0,1.746452623e1
1.193576412e1,4.089361364e0,-1.640551892e1,-7.481266844e-1,1.692405451e1
1.194581612e1,-1.279517842e0,-1.414092505e1,-8.020473683e-1,1.422132930e1
1.195586812e1,-4.067131419e0,-8.612010178e0,2.303720229e0,9.798745031e0
1.196592112e1,-2.608045000e0,-1.931601963e0,5.562907655e0,6.440413531e0
1.197597312e1,2.606036773e-1,2.021021093e0,8.840738636e0,9.072546510e0
1.198602512e1,2.234730393e0,3.958014189e0,1.159250264e1,1.245174742e1
1.199607712e1,2.644059463e0,4.494047744e0,9.805850816e0,1.110595452e1
1.200612912e1,2.284650705e0,3.879819959e0,7.161369184e0,8.459186743e0
1.201618212e1,1.865562048e0,2.433881881e0,4.806546922e0,5.701490689e0
1.202623412e1,1.194432376e0,7.289390463e-1,2.633467816e0,2.982142447e0
1.203628612e1,3.474778434e-1,-9.325829494e-1,9.695431995e-1,1.389412043e0
1.204633813e1,-2.642678350e-1,-2.234418152e0,1.323037791e-1,2.253878048e0
1.205639112e1,-6.844010970e-1,-2.821742898e0,-8.431335052e-2,2.904779954e0
1.206644312e1,-1.072529624e0,-2.041742456e0,-6.367079902e-1,2.392577923e0
1.207649512e1,-1.803314636e0,-6.519931966e-1,-1.778607811e0,2.615432001e0
1.208654712e1,-2.313637107e0,9.033866322e-1,-1.783725294e0,3.057891430e0
1.209660012e1,-2.333035537e0,2.137560194e0,-8.332972276e-1,3.272094539e0
1.210665212e1,-2.175538445e0,2.559878853e0,-2.960772729e-1,3.372478171e0
1.211670413e1,-2.378696736e0,2.227866932e0,-1.674817979e-1,3.263378522e0
1.212675612e1,-2.576582886e0,1.796274004e0,-4.217421234e-2,3.141203325e0
1.213680812e1,-2.356612972e0,1.872284299e0,-1.391660714e-1,3.013045037e0
1.214686112e1,-1.908277712e0,2.411071892e0,-4.429967523e-1,3.106611920e0
1.215691312e1,-1.593459236e0,2.636504275e0,-6.900346700e-1,3.156962935e0
1.216696512e1,-1.539064343e0,1.822064903e0,-1.252247744e0,2.693838149e0
1.217701712e1,-1.488332731e0,8.325031757e-2,-2.029009559e0,2.517726102e0
1.218707013e1,-7.770801229e-1,-1.033853801e0,-2.739276692e0,3.029248090e0
1.219712212e1,4.540760565e-1,-1.007557118e0,-3.585193380e0,3.751662030e0
1.220717412e1,1.498250778e0,-4.627977633e-1,-4.222001942e0,4.503802567e0
1.221722612e1,2.062454756e0,1.554447198e-1,-4.197896211e0,4.679766584e0
1.222727812e1,1.947617487e0,6.910221916e-1,-3.629633973e0,4.176717410e0
1.223733112e1,1.300400296e0,1.162753916e0,-2.785638095e0,3.286763940e0
1.224738312e1,5.239716259e-1,1.443272917e0,-1.781286421e0,2.351715181e0
1.225743512e1,-2.162165131e-1,1.532764553e0,-7.313356738e-1,1.712007191e0
1.226748712e1,-9.015991384e-1,1.467268721e0,1.345350766e-1,1.727384784e0
1.227754012e1,-1.408834864e0,1.279947905e0,7.222726357e-1,2.035868383e0
1.228759212e1,-1.865100556e0,9.544065124e-1,1.046005777e0,2.341713040e0
1.229764412e1,-2.506537921e0,4.846640110e-1,1.081106759e0,2.772439968e0
1.230769612e1,-3.260674666e0,-1.090996885e-1,5.821147303e-1,3.314024679e0
1.231774912e1,-3.929384175e0,-8.900058639e-1,-4.882419223e-1,4.058392613e0
1.232780112e1,-4.752416908e0,-1.790977011e0,-2.167371492e0,5.521826175e0
1.233785312e1,-5.792407946e0,-2.507112409e0,-4.333363626e0,7.656085342e0
1.234790512e1,-6.706053518e0,-2.785021214e0,-6.360003017e0,9.652830430e0
1.235795713e1,-6.997767599e0,-2.449495116e0,-7.325099409e0,1.042237300e1
1.236801012e1,-6.740671374e0,-2.026634420e0,-7.029712107e0,9.947901786e0
1.237806212e1,-5.921495172e0,-1.847812532e0,-5.995059577e0,8.626659582e0
1.238811412e1,-4.812728598e0,-2.145080298e0,-4.773612187e0,7.109929631e0
1.239816612e1,-3.610738111e0,-2.697534004e0,-3.244083484e0,5.553215020e0
1.240821912e1,-2.391453461e0,-3.251609142e0,-1.616412189e0,4.347965045e0
1.241827112e1,-1.430416790e0,-3.742864135e0,-1.331075666e0,4.222189782e0
1.242832313e1,-7.360413668e-1,-4.164464756e0,-2.354027626e0,4.840038188e0
1.243837512e1,-1.280554846e-1,-4.391149027e0,-4.764084442e0,6.480361761e0
1.244842712e1,1.248822007e-1,-4.542508298e0,-7.532120079e0,8.796749973e0
1.245848012e1,-6.393121938e-1,-4.549691602e0,-8.522702145e0,9.682193223e0
1.246853212e1,-1.669109489e0,-4.020990456e0,-7.232174288e0,8.441483025e0
1.247858412e1,-2.454136636e0,-3.274380539e0,-5.215576029e0,6.629222266e0
1.248863612e1,-3.166786509e0,-2.427223656e0,-3.450574104e0,5.275074702e0
1.249868913e1,-3.729832445e0,-1.988166758e0,-1.997249823e0,4.674768869e0
1.250874112e1,-4.092146100e0,-2.411866529e0,-1.363243246e-1,4.751983184e0
1.251879312e1,-3.753207567e0,-3.316172343e0,2.079321342e0,5.422835356e0
1.252884512e1,-2.607759948e0,-4.414371829e0,3.263348013e0,6.077543158e0
1.253889712e1,-1.081348687e0,-5.142018641e0,3.983926710e0,6.594038422e0
1.254895012e1,1.012518846e-1,-5.539925174e0,4.757156661e0,7.302846183e0
1.255900212e1,1.151470251e0,-5.864133402e0,5.020489526e0,7.805079075e0
1.256905412e1,2.174299712e0,-6.348091654e0,4.578648183e0,8.123414680e0
1.257910612e1,3.025756637e0,-6.821706766e0,3.564127032e0,8.270059729e0
1.258915912e1,4.530756564e0,-6.933487988e0,3.385795140e0,8.947883518e0
1.259921112e1,6.403984019e0,-7.801900084e0,4.533960253e0,1.106514581e1
1.260926312e1,8.413117138e0,-7.676459182e0,2.970278840e-1,1.139283947e1
1.261931512e1,8.110118515e0,-4.554986840e0,-2.611248397e0,9.661291096e0
1.262936712e1,5.851926754e0,-1.796312596e0,-3.878589120e0,7.246739904e0
1.263942012e1,5.133405107e0,-3.426111692e-1,-2.450298962e0,5.698525723e0
1.264947212e1,3.452526197e0,8.312951410e-1,1.015688110e0,3.693590541e0
1.265952412e1,7.851915997e-1,1.466226162e0,3.709003494e0,4.064855708e0
1.266957613e1,-1.227018909e0,1.685193279e0,5.520137612e0,5.900624631e0
1.267962912e1,-2.094679053e0,1.657911925e0,6.013061399e0,6.579761370e0
1.268968112e1,-2.153450880e0,1.657734754e0,5.352852280e0,6.003204373e0
1.269973312e1,-1.665885480e0,1.706336811e0,5.139879144e0,5.666137782e0
1.270978513e1,-1.151835045e0,1.872080816e0,5.024042294e0,5.483831829e0
1.271983812e1,-8.248929515e-1,1.932098392e0,4.968056374e0,5.393981526e0
1.272989012e1,-3.532759058e-1,2.301954077e0,5.243379539e0,5.737318662e0
1.273994213e1,1.581568046e-1,3.011758695e0,5.780108913e0,6.519613720e0
1.274999412e1,5.961227587e-1,3.961777457e0,6.632644064e0,7.748742495e0
1.276004612e1,7.380177256e-1,5.032103266e0,7.205171846e0,8.819367028e0
1.277009912e1,7.388633792e-1,5.900898355e0,7.492068990e0,9.565438738e0
1.278015112e1,1.115971440e0,6.809015969e0,7.567863523e0,1.024112538e1
1.279020312e1,2.021526877e0,7.602619958e0,7.511105186e0,1.087672296e1
1.280025512e1,2.823236277e0,7.914279476e0,7.269569571e0,1.111094615e1
1.281030813e1,3.546587139e0,8.202791621e0,6.825575284e0,1.124511221e1
1.282036012e1,3.830995416e0,8.561697226e0,6.048114873e0,1.116059491e1
1.283041212e1,3.729293917e0,8.903655261e0,5.032274004e0,1.088606870e1
1.284046412e1,3.272655318e0,9.055551306e0,4.074333142e0,1.045530836e1
1.285051612e1,2.423317716e0,8.996347663e0,2.754661008e0,9.715703644e0
1.286056912e1,1.732253425e0,8.408182672e0,1.878318626e-1,8.586822380e0
1.287062112e1,1.346214692e0,7.284977569e0,-5.193924374e0,9.047653982e0
1.288067312e1,9.839478153e-1,5.566090879e0,-9.716849177e0,1.124129347e1
1.289072512e1,2.364417543e0,2.489628650e0,-1.281990688e1,1.327172685e1
1.290077812e1,5.132357286e0,-3.528919777e0,-1.334479038e1,1.472677142e1
1.291083012e1,2.230918009e0,-1.375138120e1,-1.291194556e1,1.899462604e1
1.292088258e1,-3.714160153e0,-2.244965009e1,-1.070515609e1,2.514720942e1
1.293093458e1,-4.283420511e0,-2.291706715e1,-5.508454875e0,2.395584967e1
1.294098658e1,-3.621689361e0,-1.719956145e1,-2.162395950e0,1.770924912e1
1.295103958e1,-3.022008572e0,-8.218907132e0,-1.177463171e0,8.835688416e0
1.296109158e1,-1.114696527e0,-2.392175446e0,-7.092599496e-1,2.732782719e0
1.297114358e1,3.094842806e-1,1.607670894e0,-1.168919512e0,2.011655798e0
1.298119558e1,1.454068047e0,4.649621102e0,-1.941035568e0,5.244130944e0
1.299124858e1,2.880889823e0,7.006743659e0,-1.160902980e0,7.664312011e0
1.300130058e1,3.911952748e0,8.857997278e0,1.464259159e0,9.793443979e0
1.301135258e1,4.741727613e0,9.606822120e0,5.550418587e0,1.206574318e1
1.302140458e1,5.428484260e0,8.706417568e0,7.784269559e0,1.287885868e1
1.303145758e1,6.301599857e0,5.970399529e0,5.734091910e0,1.040363597e1
1.304150958e1,7.284068912e0,-5.787398636e-1,4.437067212e0,8.548693771e0
1.305156158e1,6.430006467e0,-7.975669978e0,7.323234732e0,1.259309579e1
1.306161358e1,4.083024151e0,-9.962928078e0,8.609094172e0,1.378577254e1
1.307166558e1,1.462791215e0,-1.014478116e1,6.781111887e0,1.228982593e1
1.308171858e1,-1.872396273e0,-8.404283749e0,6.017748528e0,1.050481559e1
1.309177058e1,-4.151934465e0,-6.187879114e0,5.671146634e0,9.364310539e0
1.310182258e1,-4.407943108e0,-4.272502590e0,5.926361225e0,8.532643095e0
1.311187458e1,-2.694043216e0,-1.847502045e0,6.712235194e0,7.464933621e0
1.312192758e1,-1.158454824e0,-1.055252856e-1,7.814920664e0,7.901021336e0
1.313197958e1,-4.395927957e-1,8.143347073e-1,8.169857179e0,8.222101262e0
1.314203158e1,1.293252075e-1,1.150502830e0,6.924473920e0,7.020592627e0
1.315208358e1,2.104283909e-1,1.060901851e0,4.595768831e0,4.721322271e0
1.316213558e1,-4.519684641e-1,6.063264424e-1,1.843296143e0,1.992397530e0
1.317218858e1,-1.358338894e0,-2.175748944e-1,-1.072152479e0,1.744114194e0
1.318224058e1,-1.909353307e0,-1.335831499e0,-2.897205309e0,3.718047128e0
1.319229258e1,-2.040232997e0,-1.795502172e0,-2.564089433e0,3.736433239e0
1.320234458e1,-1.842604710e0,-1.105250058e0,-1.478597116e0,2.608259811e0
1.321239758e1,-1.537967113e0,-6.336978436e-2,-4.562734401e-1,1.605473146e0
1.322244958e1,-1.099159598e0,7.140380019e-1,5.040720892e-1,1.404311490e0
1.323250158e1,-6.222457793e-1,1.287269204e0,9.623932242e-1,1.723500081e0
1.324255358e1,-3.424739789e-1,1.694162908e0,9.108207822e-1,1.953732551e0
1.325260558e1,-3.296245398e-1,2.090341589e0,4.844371025e-1,2.170912159e0
1.326265858e1,-6.259825156e-1,2.546699814e0,-2.999850402e-1,2.639606992e0
1.327271058e1,-1.104054668e0,2.942270384e0,-9.280619553e-1,3.276765283e0
1.328276258e1,-1.390599152e0,3.596573231e0,-1.006022809e0,3.985120688e0
1.329281458e1,-1.470100527e0,3.810761418e0,-8.363062048e-1,4.169233289e0
1.330286758e1,-1.424360975e0,3.254191858e0,-3.510095251e-1,3.569562511e0
1.331291958e1,-1.327625517e0,1.930685704e0,1.456072180e-1,2.347623961e0
1.332297158e1,-1.205098355e0,2.445884460e-1,1.692059956e-2,1.229785290e0
1.333302358e1,-9.110727972e-1,-9.071721196e-1,-8.517908013e-1,1.542258884e0
1.334307658e1,-4.078066736e-1,-1.042841556e0,-2.177719310e0,2.448731546e0
1.335312858e1,5.278588548e-1,-4.293060815e-1,-3.317896103e0,3.386941575e0
1.336318058e1,1.453730370e0,1.502705187e-1,-3.741537402e0,4.016841464e0
1.337323258e1,1.884414348e0,6.293252957e-1,-3.545110717e0,4.063850115e0
1.338328458e1,1.529708798e0,9.688310087e-1,-2.917409193e0,3.433645137e0
1.339333758e1,5.269899586e-1,1.079348062e0,-2.119506916e0,2.436189693e0
1.340338958e1,-7.869054186e-1,9.024686193e-1,-1.277994935e0,1.751268341e0
1.341344158e1,-1.903863357e0,6.720263422e-1,-6.600032973e-1,2.124127924e0
1.342349358e1,-2.519891792e0,5.210202438e-1,-1.945393498e-1,2.580535273e0
1.343354658e1,-2.984798353e0,2.502321786e-1,2.075409262e-1,3.002450764e0
1.344359858e1,-3.653774203e0,-2.834069413e-1,2.644020286e-1,3.674274602e0
1.345365058e1,-4.434292708e0,-9.920830464e-1,-5.396623367e-1,4.575851399e0
1.346370258e1,-5.316089081e0,-1.823727266e0,-2.254247814e0,6.055445274e0
1.347375458e1,-5.944444324e0,-2.552009085e0,-4.039912630e0,7.626930100e0
1.348380758e1,-5.688152091e0,-2.605670738e0,-5.385594349e0,8.255254127e0
1.349385958e1,-4.702959696e0,-2.142238551e0,-5.939696969e0,7.873183346e0
1.350391158e1,-3.956483680e0,-1.662314878e0,-5.376511284e0,6.879238872e0
1.351396358e1,-3.596742216e0,-1.475065398e0,-4.440991863e0,5.902099730e0
1.352401658e1,-3.615318235e0,-1.803126941e0,-3.555911694e0,5.382034994e0
1.353406858e1,-4.104447180e0,-2.676414446e0,-2.457513695e0,5.481701789e0
1.354412058e1,-4.731403769e0,-3.709065474e0,-1.517862047e0,6.200584933e0
1.355417258e1,-5.336642629e0,-4.389856208e0,-1.048506777e0,6.989274536e0
1.356422458e1,-5.780166215e0,-4.401478134e0,-1.419160316e0,7.402523032e0
1.357427758e1,-5.480382392e0,-3.837635221e0,-2.448061963e0,7.124257339e0
1.358432958e1,-4.442634931e0,-3.469737768e0,-3.624896851e0,6.701937219e0
1.359438158e1,-3.114182618e0,-3.660694968e0,-4.470219463e0,6.563663845e0
1.360443358e1,-2.187906914e0,-3.991541539e0,-5.009121369e0,6.768355591e0
1.361448658e1,-1.754311753e0,-4.114940593e0,-5.187102427e0,6.849553081e0
1.362453858e1,-1.245684244e0,-3.986943288e0,-5.035739064e0,6.542638149e0
1.363459058e1,-2.314253403e-1,-4.009338124e0,-4.631215822e0,6.129968178e0
1.364464258e1,1.112675730e0,-4.541342947e0,-3.253813543e0,5.696415155e0
1.365469458e1,2.605409075e0,-4.868544365e0,-3.749013213e-1,5.534566982e0
1.366474758e1,3.640645157e0,-4.723548034e0,2.142852509e0,6.337035590e0
1.367479958e1,4.181954947e0,-4.412140532e0,3.608845952e0,7.069618120e0
1.368485158e1,4.323265193e0,-4.418628602e0,4.570280818e0,7.687806410e0
1.369490358e1,4.664085360e0,-4.450618134e0,4.770478957e0,8.019922911e0
1.370495658e1,5.100223328e0,-4.173682891e0,4.148841580e0,7.787476698e0
1.371500858e1,5.463448856e0,-3.615780165e0,2.938639848e0,7.180441753e0
1.372506058e1,5.648230226e0,-3.134078938e0,1.904084966e0,6.734277618e0
1.373511258e1,6.270335380e0,-3.168378121e0,-5.995582172e-1,7.050900350e0
1.374516458e1,6.371633713e0,-3.115984145e0,1.488925784e0,7.247342503e0
1.375521758e1,2.844718947e0,-2.334817768e0,4.188661119e0,5.575722542e0
1.376526958e1,1.297202161e0,-9.158879793e-1,1.718324918e0,2.339706127e0
1.377532158e1,4.402108829e-1,-7.017009616e-2,-1.647111387e0,1.706366134e0
1.378537358e1,-1.130243689e0,1.769022471e-1,-1.984276167e0,2.290436008e0
1.379542658e1,-2.542200966e0,3.448869056e-1,3.121524382e-1,2.584409386e0
1.380547858e1,-3.632978873e0,7.533453244e-1,2.568632720e0,4.512642099e0
1.381553058e1,-4.166486723e0,1.207768121e0,4.160192195e0,6.010450445e0
1.382558258e1,-3.565459904e0,1.687359672e0,4.725196949e0,6.155255738e0
1.383563558e1,-2.697455651e0,2.136655045e0,4.735451796e0,5.853722361e0
1.384568758e1,-2.173125006e0,2.305591046e0,4.587056479e0,5.574882017e0
1.385573958e1,-1.032302973e0,2.589566921e0,4.342106383e0,5.159980049e0
1.386579158e1,3.189770159e-1,2.968017429e0,4.482118839e0,5.385189234e0
1.387584358e1,1.234194612e0,3.249124076e0,5.006379610e0,6.094577951e0
1.388589658e1,1.703981114e0,3.499536933e0,5.764979242e0,6.955954000e0
1.389594858e1,1.484291135e0,3.762433012e0,6.351336858e0,7.529840784e0
1.390600058e1,1.373257188e0,4.266372954e0,6.535502517e0,7.924680853e0
1.391605183e1,1.412855701e0,4.959173868e0,6.648029258e0,8.413433289e0
1.392610383e1,1.679341093e0,5.655424055e0,6.645132548e0,8.886044920e0
1.393615683e1,2.336061471e0,6.306519704e0,6.392946814e0,9.278962385e0
1.394620883e1,3.010306247e0,6.729968630e0,6.178268046e0,9.619013333e0
1.395626083e1,3.604685366e0,6.971446357e0,5.785398889e0,9.750162112e0
1.396631283e1,3.822462866e0,7.367884655e0,4.991225381e0,9.685518956e0
1.397636583e1,3.774190008e0,7.813324374e0,4.248774589e0,9.661502652e0
1.398641783e1,3.611653200e0,8.077512102e0,3.659368819e0,9.575031110e0
1.399646983e1,3.357907430e0,7.937932633e0,2.445009717e0,8.959039530e0
1.400652183e1,2.907074239e0,7.135722127e0,-1.608913135e0,7.871353910e0
1.401657483e1,2.766789011e0,5.463044813e0,-8.718004410e0,1.065380594e1
1.402662683e1,3.109253415e0,2.697089031e0,-1.591740856e1,1.644097447e1
1.403667883e1,6.216486032e0,-2.211246221e0,-1.833743664e1,1.948835270e1
1.404673083e1,5.440384514e0,-1.005423586e1,-1.329561998e1,1.753450749e1
1.405678283e1,-2.999692089e0,-1.845524400e1,-1.051853285e1,2.145305845e1
1.406683583e1,-6.862424437e0,-2.072813858e1,-5.617769741e0,2.254568551e1
1.407688783e1,-6.796285996e0,-1.605659685e1,-2.709129325e0,1.764491960e1
1.408693983e1,-5.188299353e0,-7.752577651e0,-1.573028480e0,9.460197091e0
1.409699183e1,-2.029792648e0,-2.329567553e0,-2.217417665e0,3.803141370e0
1.410704483e1,-7.893302590e-2,9.343423766e-1,-3.338437371e0,3.467620248e0
1.411709683e1,1.395383198e0,3.802667702e0,-2.240461542e0,4.628935498e0
1.412714883e1,2.614279009e0,6.673490959e0,1.519175916e0,7.326515664e0
1.413720083e1,4.062272383e0,9.323198832e0,4.739461232e0,1.121991917e1
1.414725283e1,5.848608459e0,9.544976705e0,7.188978567e0,1.330391724e1
1.415730583e1,7.579792428e0,7.275962917e0,6.690875316e0,1.245635188e1
1.416735783e1,9.271062133e0,2.497069232e0,6.259896930e0,1.146186099e1
1.417740983e1,9.362689172e0,-4.812558444e0,7.289471739e0,1.280457206e1
1.418746183e1,7.338553852e0,-8.637768332e0,8.417554590e0,1.411809618e1
1.419751483e1,4.398793969e0,-9.924317744e0,6.753358662e0,1.278473012e1
1.420756683e1,1.059322884e-1,-8.718780336e0,5.366962781e0,1.023878126e1
1.421761883e1,-3.449304088e0,-5.960559250e0,4.865973344e0,8.432298729e0
1.422767083e1,-5.037889085e0,-3.542776508e0,5.738669111e0,8.418070740e0
1.423772283e1,-4.055202222e0,-1.454968518e0,7.460813284e0,8.615412544e0
1.424777583e1,-4.795520827e-1,-5.273217881e-1,8.893590449e0,8.922106788e0
1.425782783e1,1.931208153e0,-4.099839574e-1,9.286577135e0,9.494112211e0
1.426787983e1,2.080793670e0,-8.394204319e-2,8.141665413e0,8.403776786e0
1.427793183e1,1.503406852e0,-4.541532397e-2,5.953251400e0,6.140317333e0
1.428798483e1,8.990848356e-1,-5.744304657e-1,3.666318820e0,3.818405111e0
1.429803683e1,-1.992190227e-1,-1.456331504e0,1.494810276e0,2.096436841e0
1.430808883e1,-1.474714858e0,-2.508209932e0,-1.316051538e0,3.193413945e0
1.431814083e1,-2.539898332e0,-2.941113220e0,-2.927910208e0,4.865582051e0
1.432819283e1,-2.986875284e0,-1.841320369e0,-2.975045782e0,4.600302389e0
1.433824583e1,-2.659423022e0,-1.351864564e-1,-2.160880644e0,3.429316455e0
1.434829783e1,-2.028868641e0,9.599122506e-1,-8.701381946e-1,2.407255693e0
1.435834983e1,-1.442188259e0,1.567824458e0,4.934681636e-1,2.186662144e0
1.436840183e1,-9.668154734e-1,2.019323646e0,1.095696877e0,2.492579346e0
1.437845483e1,-5.636210470e-1,2.146135721e0,8.487584352e-1,2.375701601e0
1.438850683e1,-3.510068207e-1,2.448630313e0,1.619819800e-1,2.478958321e0
1.439855883e1,-4.015289201e-1,2.830318424e0,-3.114847592e-1,2.875578309e0
1.440861083e1,-5.208644886e-1,3.151755071e0,-4.334471527e-1,3.223776710e0
1.441866283e1,-5.782738771e-1,3.453908771e0,-1.518627886e-1,3.505274423e0
1.442871583e1,-4.030904191e-1,3.443873779e0,4.994147088e-1,3.503164790e0
1.443876783e1,-1.032925263e-1,2.394906095e0,1.151006860e0,2.659146732e0
1.444881983e1,1.123250127e-1,7.337244076e-1,1.303095278e0,1.499675204e0
1.445887183e1,1.470407725e-1,-5.434361297e-1,5.718295511e-1,8.024542674e-1
1.446892483e1,2.053611573e-1,-1.076425624e0,-8.277425189e-1,1.373325528e0
1.447897683e1,5.528419242e-1,-6.044839847e-1,-2.530757965e0,2.660032135e0
1.448902883e1,1.299224421e0,1.609083581e-1,-4.040189204e0,4.246999458e0
1.449908083e1,2.075817690e0,6.897878444e-1,-4.788479025e0,5.264442775e0
1.450913283e1,2.500251871e0,1.172359137e0,-4.571038617e0,5.340419403e0
1.451918583e1,2.003353146e0,1.423775377e0,-3.748805491e0,4.482644617e0
1.452923783e1,5.718058699e-1,1.173994018e0,-2.603448211e0,2.912587594e0
1.453928983e1,-8.596038508e-1,7.304908973e-1,-1.369845922e0,1.774546021e0
1.454934183e1,-1.859965385e0,4.504215467e-1,-3.160437602e-1,1.939648025e0
1.455939483e1,-2.602913191e0,1.957636106e-1,5.057376686e-1,2.658806322e0
1.456944683e1,-3.339703878e0,-1.479292935e-1,5.836396842e-1,3.393543922e0
1.457949883e1,-4.045629161e0,-7.074961370e-1,-3.278487039e-1,4.120091123e0
1.458955083e1,-4.979346178e0,-1.385552128e0,-1.741679136e0,5.454089224e0
1.459960283e1,-6.231938469e0,-2.265903069e0,-3.588100616e0,7.539618016e0
1.460965583e1,-7.257169966e0,-3.066471677e0,-5.376959181e0,9.538419916e0
1.461970783e1,-7.534360732e0,-2.998094922e0,-5.955292663e0,1.006084865e1
1.462975983e1,-7.091925897e0,-2.542529579e0,-5.801195726e0,9.508614066e0
1.463981183e1,-6.420267929e0,-1.958179897e0,-4.875999272e0,8.296365331e0
1.464986483e1,-5.569117398e0,-1.652258252e0,-3.964029804e0,7.032677884e0
1.465991683e1,-4.748138792e0,-1.739783469e0,-3.367873424e0,6.075709005e0
1.466996883e1,-3.837229425e0,-2.301203295e0,-2.744193323e0,5.248853518e0
1.468002083e1,-2.765191551e0,-3.258791277e0,-2.034115640e0,4.733247442e0
1.469007283e1,-1.854545747e0,-4.148308314e0,-1.651322990e0,4.834735713e0
1.470012583e1,-1.176303669e0,-4.230811942e0,-2.050219164e0,4.846324239e0
1.471017783e1,-3.662454687e-1,-4.187695743e0,-3.829287736e0,5.686332381e0
1.472022983e1,-2.859598356e-1,-4.235628294e0,-5.939187092e0,7.300428986e0
1.473028183e1,-1.418686691e0,-4.051647407e0,-7.114430076e0,8.309249903e0
1.474033483e1,-2.624664541e0,-3.534568187e0,-6.775521948e0,8.080206303e0
1.475038683e1,-3.126961707e0,-2.861302820e0,-5.361837112e0,6.834781676e0
1.476043883e1,-3.157476864e0,-2.190744714e0,-3.702096763e0,5.336154326e0
1.477049083e1,-2.906616987e0,-2.191417143e0,-2.660913477e0,4.509012302e0
1.478054283e1,-2.433816392e0,-2.913867534e0,-1.163749770e0,3.970944442e0
1.479059583e1,-1.407962167e0,-3.605562156e0,1.299424396e0,4.083006206e0
1.480064783e1,1.703848674e-1,-3.940924532e0,3.078485951e0,5.003697924e0
1.481069983e1,1.684069736e0,-4.068956920e0,3.939629374e0,5.908737673e0
1.482075183e1,2.555984023e0,-4.581573545e0,4.743919734e0,7.073093023e0
1.483080483e1,3.227067501e0,-4.723077334e0,4.813123870e0,7.475799994e0
1.484085683e1,3.655267874e0,-4.726055321e0,4.175400803e0,7.289070859e0
1.485090883e1,3.805499801e0,-5.098724687e0,3.528029830e0,7.275013172e0
1.486096083e1,4.934712042e0,-5.276384733e0,2.731033287e0,7.723351707e0
1.487101283e1,5.952174343e0,-6.351134545e0,3.323194849e0,9.317130106e0
1.488106583e1,5.726203431e0,-6.260100414e0,1.480381687e0,8.612188622e0
1.489111783e1,4.606018707e0,-3.725849322e0,-1.785893003e0,6.187630833e0
1.490116983e1,3.349432183e0,-1.726254181e0,-4.060702990e0,5.539671310e0
1.491122183e1,1.929959188e0,-6.448742115e-1,-2.482362900e0,3.209786719e0
1.492127512e1,-6.878313661e-2,6.162322104e-2,8.538607156e-1,8.588403012e-1
1.493132712e1,-2.105612177e0,8.347800815e-1,3.535489708e0,4.198826967e0
1.494137912e1,-3.081016918e0,1.035477573e0,5.131398343e0,6.074218304e0
1.495143112e1,-3.041888813e0,1.253419672e0,5.535238631e0,6.439178140e0
1.496148312e1,-2.349184085e0,1.418369041e0,5.103890117e0,5.794836575e0
1.497153612e1,-1.254442935e0,1.765840416e0,4.549037299e0,5.038408459e0
1.498158812e1,-7.627843384e-1,1.946947396e0,4.526929853e0,4.986535672e0
1.499164012e1,-2.987631914e-1,2.285221685e0,4.761824493e0,5.290224012e0
1.500169212e1,2.610825643e-2,2.624340312e0,5.198050754e0,5.823021154e0
1.501174512e1,6.048127444e-1,3.090537062e0,5.767651420e0,6.571378903e0
1.502179712e1,9.302616779e-1,3.752636002e0,6.380430264e0,7.460399058e0
1.503184912e1,1.031440801e0,4.538949097e0,6.860601275e0,8.290583748e0
1.504190112e1,1.353888870e0,5.419114097e0,7.225003263e0,9.132386590e0
1.505195312e1,1.823013614e0,6.385113884e0,7.309261640e0,9.875138666e0
1.506200612e1,2.507560306e0,7.268200738e0,7.180740425e0,1.052034380e1
1.507205812e1,3.486156457e0,7.892515554e0,6.884919260e0,1.103844200e1
1.508211012e1,4.448160549e0,8.432054515e0,6.261083915e0,1.140556213e1
1.509216212e1,4.309776835e0,8.847540118e0,5.850210596e0,1.144893473e1
1.510221512e1,4.245634634e0,9.142264345e0,5.162231296e0,1.132497429e1
1.511226712e1,4.273630225e0,9.326080340e0,4.233300225e0,1.109777097e1
1.512231912e1,3.892755462e0,9.235040946e0,3.246109251e0,1.053455038e1
1.513237113e1,3.240474582e0,8.626646928e0,1.222794003e0,9.295963528e0
1.514242312e1,2.667020309e0,7.230124839e0,-3.861563197e0,8.619708397e0
1.515247612e1,2.616823132e0,5.138550072e0,-1.061354309e1,1.207889718e1
1.516252812e1,3.978028916e0,1.310869151e0,-1.801928846e1,1.849967158e1
1.517258012e1,5.664240487e0,-6.723427935e0,-1.743029609e1,1.952186787e1
1.518263212e1,-3.334308214e-1,-1.840960531e1,-1.165277340e1,2.179017833e1
1.519268512e1,-7.186747270e0,-2.520509667e1,-7.044651743e0,2.713988490e1
1.520273713e1,-6.574803407e0,-2.275575183e1,-4.372601659e0,2.408675832e1
1.521278912e1,-5.555965841e0,-1.334068797e1,-2.408978004e0,1.465079817e1
1.522284112e1,-3.352030393e0,-4.869629608e0,-1.592562566e0,6.122553046e0
1.523289312e1,-9.467212245e-1,-4.639701301e-1,-1.677281996e0,1.981116920e0
1.524294612e1,5.051191793e-1,2.673553988e0,-1.608328413e0,3.160657621e0
1.525299812e1,1.843682351e0,5.411395773e0,-5.166646528e-1,5.740149056e0
1.526305012e1,2.715774978e0,7.879227172e0,1.648134503e0,8.495528347e0
1.527310212e1,3.854519934e0,9.478758742e0,4.541585022e0,1.119509650e1
1.528315512e1,4.946351509e0,9.264533717e0,7.143479043e0,1.270146728e1
1.529320712e1,6.376351832e0,7.294558232e0,6.472529758e0,1.165169876e1
1.530325912e1,8.154123491e0,2.719011412e0,5.541913812e0,1.022719716e1
1.531331112e1,8.710935127e0,-5.164597079e0,5.899075778e0,1.171975037e1
1.532336312e1,6.050000015e0,-9.433873760e0,7.968235828e0,1.375111837e1
1.533341612e1,3.205182835e0,-1.046798835e1,6.537008175e0,1.275086087e1
1.534346812e1,-1.613009255e-2,-9.300430943e0,4.081714375e0,1.015670558e1
1.535352012e1,-3.444563166e0,-7.706216832e0,3.273259628e0,9.053453587e0
1.536357212e1,-4.980539010e0,-5.945358244e0,4.196372427e0,8.818310213e0
1.537362512e1,-2.983736207e0,-2.443345599e0,5.649658116e0,6.840413459e0
1.538367712e1,-5.679619834e-1,7.109044790e-2,7.252227899e0,7.274781382e0
1.539372912e1,8.951484901e-1,1.348786005e0,8.326602319e0,8.482500851e0
1.540378112e1,1.586364225e0,1.893180494e0,7.708162200e0,8.094223146e0
1.541383312e1,1.420208867e0,1.703999094e0,5.829897369e0,6.237652561e0
1.542388612e1,6.891630694e-1,1.111579084e0,3.795632333e0,4.014645514e0
1.543393812e1,-4.003530085e-1,2.588749480e-1,2.050652443e0,2.105344203e0
1.544399013e1,-1.300146234e0,-5.892794698e-1,9.956638813e-1,1.740395670e0
1.545404212e1,-1.686970832e0,-9.540480781e-1,-3.729820093e-2,1.938419325e0
1.546409512e1,-1.682123198e0,-7.315474892e-1,-1.164917386e0,2.172954831e0
1.547414712e1,-1.465901934e0,-6.475206614e-3,-1.902079371e0,2.401419652e0
1.548419912e1,-1.370564252e0,9.043379742e-1,-1.491170969e0,2.218076735e0
1.549425112e1,-1.159225706e0,1.653806595e0,-5.235585201e-1,2.086382998e0
1.550430312e1,-1.046135220e0,2.015265679e0,-3.760399204e-2,2.270926840e0
1.551435613e1,-1.119464932e0,1.824245329e0,-2.453924747e-1,2.154365387e0
1.552440812e1,-1.345574130e0,1.543378419e0,-5.032768679e-1,2.108524197e0
1.553446012e1,-1.687490650e0,1.453703181e0,-7.261096517e-1,2.342672162e0
1.554451212e1,-1.850280203e0,1.985089953e0,-7.839661695e-1,2.824663149e0
1.555456512e1,-1.796472225e0,2.470642741e0,-7.026973271e-1,3.134512967e0
1.556461712e1,-1.536367022e0,2.099891846e0,-9.829847789e-1,2.781407642e0
1.557466912e1,-1.165735338e0,8.015199494e-1,-1.328802415e0,1.940899010e0
1.558472112e1,-5.646332001e-1,-7.416789597e-1,-1.728318248e0,1.963665526e0
1.559477312e1,2.383097059e-1,-1.055802494e0,-2.622040018e0,2.836653711e0
1.560482612e1,1.224495543e0,-3.396746975e-1,-3.423990322e0,3.652188106e0
1.561487812e1,2.019960116e0,5.080060959e-1,-3.644760720e0,4.197926842e0
1.562493012e1,2.216670683e0,1.279051527e0,-3.215344126e0,4.109506001e0
1.563498212e1,1.648586200e0,1.822801652e0,-2.442931616e0,3.465307664e0
1.564503412e1,6.816604339e-1,1.878108126e0,-1.509313856e0,2.503992691e0
1.565508712e1,-3.274516779e-1,1.708635936e0,-5.685440737e-1,1.830274222e0
1.566513912e1,-1.075374368e0,1.479690546e0,2.449098967e-1,1.845506705e0
1.567519112e1,-1.569428057e0,1.155043193e0,8.126780449e-1,2.111320631e0
1.568524313e1,-1.958075817e0,8.302063894e-1,1.217663802e0,2.450715954e0
1.569529612e1,-2.362075295e0,5.026652491e-1,1.291386667e0,2.738567431e0
1.570534812e1,-2.771862640e0,-5.446389019e-2,7.845326185e-1,2.881263653e0
1.571540012e1,-3.318420598e0,-7.148004788e-1,-2.110587573e-1,3.401088177e0
1.572545212e1,-4.304595618e0,-1.435970330e0,-1.832069635e0,4.893672789e0
1.573550512e1,-5.516028188e0,-2.176128429e0,-4.033711658e0,7.171675652e0
1.574555712e1,-6.390685111e0,-2.524324273e0,-6.055109312e0,9.158461553e0
1.575560913e1,-6.369203610e0,-2.300485257e0,-6.843729719e0,9.627856642e0
1.576566112e1,-5.665791169e0,-1.954129531e0,-6.280220683e0,8.681070419e0
1.577571312e1,-4.698186321e0,-1.627328063e0,-4.923191857e0,6.997068629e0
1.578576612e1,-3.661222971e0,-1.558830271e0,-3.477482405e0,5.284637105e0
1.579581812e1,-3.146239977e0,-2.112211930e0,-2.393617369e0,4.482150080e0
1.580587012e1,-2.803149337e0,-2.892980111e0,-1.463721946e0,4.285961043e0
1.581592212e1,-2.536309604e0,-3.817593305e0,-7.591475165e-1,4.645771196e0
1.582597412e1,-2.469192047e0,-4.661457621e0,-8.613686867e-1,5.344909029e0
1.583602712e1,-2.287172901e0,-4.742908165e0,-2.127712898e0,5.679216488e0
1.584607912e1,-2.006786047e0,-4.440529933e0,-4.361873188e0,6.539987311e0
1.585613112e1,-2.051359225e0,-4.380093697e0,-6.761250064e0,8.313110001e0
1.586618312e1,-2.370751394e0,-4.377240255e0,-7.812192353e0,9.263425057e0
1.587623612e1,-2.984059265e0,-4.341703802e0,-7.106248652e0,8.846116182e0
1.588628812e1,-3.269563310e0,-3.778902864e0,-5.389315517e0,7.349481127e0
1.589634012e1,-3.120656655e0,-3.191869894e0,-3.916743371e0,5.938637050e0
1.590639212e1,-2.840265707e0,-3.000090576e0,-2.934719290e0,5.067566484e0
1.591644425e1,-2.484533386e0,-3.330775180e0,-1.485075685e0,4.412756422e0
1.592649725e1,-1.689471979e0,-3.733166528e0,8.474527520e-1,4.184378575e0
1.593654925e1,-8.529772013e-2,-3.687669927e0,2.738068657e0,4.593822500e0
1.594660125e1,1.415121790e0,-3.616960133e0,3.844819111e0,5.465126191e0
1.595665325e1,2.217077065e0,-4.177107605e0,4.582402096e0,6.584988050e0
1.596670625e1,2.836951213e0,-4.343535150e0,4.732573797e0,7.022239282e0
1.597675825e1,3.303331566e0,-4.103612198e0,4.151472827e0,6.707187125e0
1.598681025e1,3.628734671e0,-3.972650355e0,3.570658371e0,6.457496989e0
1.599686225e1,4.179734467e0,-3.935728111e0,2.787189946e0,6.381893432e0
1.600691425e1,5.990450217e0,-4.603163804e0,1.813918562e0,7.769485913e0
1.601696725e1,7.051182498e0,-5.086919743e0,6.055495667e-1,8.715653583e0
1.602701925e1,6.621627910e0,-3.102326803e0,-1.471931291e-1,7.313826194e0
1.603707125e1,5.022536636e0,-1.084456775e0,-1.241831806e0,5.286214808e0
1.604712325e1,3.689507415e0,1.535853052e-1,-1.518146368e0,3.992595873e0
1.605717525e1,2.032553264e0,9.558753330e-1,1.996254042e-2,2.246189869e0
1.606722825e1,-7.671899596e-2,1.428802813e0,2.098533977e0,2.539922860e0
1.607728025e1,-1.751380252e0,1.639978514e0,3.895349579e0,4.574998432e0
1.608733225e1,-2.727320890e0,1.590836760e0,5.210750906e0,6.092697747e0
1.609738425e1,-2.846409377e0,1.324478545e0,5.094691862e0,5.984327441e0
1.610743725e1,-2.546764425e0,9.584124398e-1,4.691493598e0,5.423529812e0
1.611748925e1,-2.130458751e0,7.476670933e-1,4.387855875e0,4.934687402e0
1.612754125e1,-1.245947808e0,1.213918222e0,4.312641971e0,4.650254204e0
1.613759325e1,-4.503834667e-1,1.921276365e0,4.535865568e0,4.946536626e0
1.614764625e1,2.925298402e-1,2.717834952e0,5.077619162e0,5.766664277e0
1.615769825e1,6.969047099e-1,3.568445785e0,5.825950499e0,6.867399851e0
1.616775025e1,8.472872758e-1,4.372258428e0,6.490575435e0,7.871601423e0
1.617780225e1,1.084363877e0,5.180923090e0,7.205664766e0,8.940884397e0
1.618785425e1,1.480639695e0,6.079361808e0,7.456971663e0,9.734339232e0
1.619790725e1,1.934933414e0,6.953316481e0,7.231731069e0,1.021716750e1
1.620795925e1,2.645751939e0,7.557874140e0,6.928321388e0,1.058881967e1
1.621801125e1,3.455858232e0,7.940743974e0,6.512049919e0,1.083536641e1
1.622806325e1,3.908150596e0,8.340913965e0,5.908468745e0,1.094323945e1
1.623811525e1,3.688365161e0,8.706174324e0,5.116622429e0,1.075087596e1
1.624816825e1,3.534890661e0,8.986933646e0,4.189228591e0,1.052663595e1
1.625822025e1,3.215166956e0,8.900271478e0,2.990562539e0,9.924494709e0
1.626827225e1,2.597137603e0,8.144606563e0,3.518219957e-1,8.555905476e0
1.627832425e1,2.005739687e0,6.640412675e0,-4.968870306e0,8.532745414e0
1.628837725e1,1.918833398e0,4.541371014e0,-1.102694942e1,1.207889009e1
1.629842925e1,3.207830454e0,9.339529520e-1,-1.695608222e1,1.728210545e1
1.630848125e1,4.901953016e0,-5.893173013e0,-1.506115751e1,1.689961825e1
1.631853325e1,4.708128342e-1,-1.616662391e1,-1.220477863e1,2.026173770e1
1.632858525e1,-4.842466367e0,-2.351619626e1,-8.350053163e0,2.542015646e1
1.633863825e1,-5.556433618e0,-2.181689715e1,-3.834606364e0,2.283758223e1
1.634869025e1,-5.407569355e0,-1.256714929e1,-2.239794667e0,1.386332311e1
1.635874225e1,-3.239244913e0,-4.334960793e0,-2.045811241e0,5.785320762e0
1.636879425e1,-7.501491632e-1,1.069356340e-1,-2.720316218e0,2.823876648e0
1.637884725e1,7.293574876e-1,3.381386340e0,-2.547785934e0,4.296155152e0
1.638889925e1,1.501658827e0,6.363405511e0,-1.419481766e-1,6.539729216e0
1.639895125e1,1.673874239e0,9.345897723e0,2.874829476e0,9.920297563e0
1.640900325e1,2.312232606e0,1.130247139e1,5.875310354e0,1.294648798e1
1.641905525e1,3.509101224e0,1.061502594e1,8.472435386e0,1.402764159e1
1.642910825e1,5.662644197e0,8.232142889e0,6.561488128e0,1.195352845e1
1.643916025e1,8.561851008e0,2.881625987e0,5.340741527e0,1.049440713e1
1.644921225e1,9.468495709e0,-6.877521948e0,6.567010823e0,1.341932749e1
1.645926425e1,7.352853802e0,-1.221585793e1,8.857764559e0,1.678545909e1
1.646931625e1,4.782826230e0,-1.420680679e1,5.789386690e0,1.606940522e1
1.647936925e1,1.595692726e-1,-1.338406613e1,2.222281233e0,1.356824316e1
1.648942125e1,-5.064232546e0,-1.116226218e1,1.267511608e0,1.232270806e1
1.649947325e1,-6.134477663e0,-5.518544830e0,3.576346543e0,8.993131147e0
1.650952525e1,-3.057725119e0,5.117307723e-2,6.131130717e0,6.851500964e0
1.651957825e1,-2.917868784e-1,2.515324824e0,8.407394468e0,8.780448752e0
1.652963025e1,1.711228299e0,3.348751860e0,9.494935648e0,1.021255327e1
1.653968225e1,2.263344328e0,3.323489549e0,8.221101007e0,9.151765518e0
1.654973425e1,2.030183972e0,2.608900155e0,6.013007605e0,6.861797683e0
1.655978625e1,1.321658725e0,1.321781809e0,3.416165578e0,3.894107882e0
1.656983925e1,3.505911568e-1,-1.826693559e-1,1.569911914e0,1.618921144e0
1.657989125e1,-5.613313139e-1,-1.392048969e0,6.428639388e-1,1.632840231e0
1.658994325e1,-1.022145994e0,-2.061265140e0,-8.990561843e-2,2.302537606e0
1.659999525e1,-9.371469936e-1,-1.680646484e0,-1.308328536e0,2.326916554e0
1.661004825e1,-7.564938308e-1,-3.657778376e-1,-2.208591585e0,2.363038961e0
1.662010025e1,-8.761809996e-1,9.036088264e-1,-1.882369577e0,2.264402190e0
1.663015225e1,-9.769261133e-1,1.921757591e0,-6.683484435e-1,2.257039324e0
1.664020425e1,-1.060092889e0,2.338388078e0,6.515026152e-2,2.568287424e0
1.665025625e1,-1.397235450e0,2.025889485e0,7.055016518e-2,2.462005774e0
1.666030925e1,-1.966534691e0,1.466116235e0,-2.084496566e-1,2.461748721e0
1.667036125e1,-2.307175933e0,1.458984386e0,-6.019411037e-1,2.795358531e0
1.668041325e1,-2.327041556e0,2.248104730e0,-8.666393669e-1,3.349650888e0
1.669046525e1,-2.222235771e0,3.037734951e0,-9.506378357e-1,3.881994042e0
